time,seconds_elapsed,z,y,x
1710962121182648000,0.15164794921875,0,0,0
1710962121240558600,0.20955859375,2.13364315032959,1.3637523651123047,-0.7299351692199707
1710962121298468900,0.26746875,1.015976905822754,-2.389558792114258,1.1361641883850098
1710962121356379100,0.325379150390625,1.8329038619995117,-3.674787998199463,-0.7283115386962891
1710962121414289400,0.383289306640625,2.496741771697998,-4.228331089019775,3.9156322479248047
1710962121472199700,0.44119970703125,0.14825329184532166,-2.940791130065918,3.717315673828125
1710962121530110000,0.49910986328125,3.815932035446167,-1.951704978942871,4.395995616912842
1710962121588020500,0.5570205078125,-0.9759460687637329,-2.8248777389526367,-0.23116731643676758
1710962121645930800,0.6149306640625,2.7988715171813965,-2.591958522796631,-1.2067580223083496
1710962121703841000,0.672841064453125,-2.5196642875671387,-3.211759090423584,-2.8535521030426025
1710962121761751300,0.730751220703125,0.3148043751716614,-2.3756184577941895,-2.850451707839966
1710962121819661600,0.78866162109375,-2.0294909477233887,-1.0740509033203125,-0.5781264305114746
1710962121877571800,0.84657177734375,-1.4113352298736572,-0.8778572082519531,-1.2391376495361328
1710962121935482400,0.904482421875,-1.3104760646820068,-0.650789737701416,-0.24591493606567383
1710962121993392600,0.962392578125,-1.8141918182373047,-0.02711200714111328,-0.43891143798828125
1710962122051303000,1.020302978515625,-2.571214199066162,-0.5084195137023926,0.4263901710510254
1710962122109213200,1.078213134765625,1.3664178848266602,-0.6910018920898438,-1.7673394680023193
1710962122167123700,1.136123779296875,-3.2283148765563965,-0.4368405342102051,-0.6459231376647949
1710962122225034000,1.194033935546875,-4.638867378234863,-1.6224174499511719,-1.3611183166503906
1710962122282944300,1.2519443359375,5.590121269226074,0.5970869064331055,1.1511015892028809
1710962122340854500,1.3098544921875,-6.453624725341797,-1.5897397994995117,-0.5324544906616211
1710962122398764800,1.367764892578125,2.377804756164551,-0.6193199157714844,-1.0684490203857422
1710962122456675300,1.42567529296875,-2.5556414127349854,-0.4452800750732422,-0.6498994827270508
1710962122514585600,1.483585693359375,0.17105770111083984,0.04599618911743164,-0.015082836151123047
1710962122572496000,1.541495849609375,-1.5555062294006348,-0.3707466125488281,-0.34201860427856445
1710962122630406100,1.59940625,-0.8641065359115601,0.033327579498291016,-0.4508347511291504
1710962122688316700,1.657316650390625,-1.2798433303833008,0.10491466522216797,0.2801399230957031
1710962122746227000,1.71522705078125,-1.1513209342956543,-0.08670759201049805,0.030910491943359375
1710962122804137200,1.77313720703125,-0.9944208264350891,-0.08683013916015625,0.3922591209411621
1710962122862047700,1.8310478515625,0.21522516012191772,0.09581327438354492,-0.19169855117797852
1710962122919958000,1.8889580078125,-1.6074724197387695,-0.09045219421386719,0.30097198486328125
1710962122977868300,1.946868408203125,0.06482267379760742,0.20029497146606445,-0.19747447967529297
1710962123035778800,2.00477880859375,0.7428663969039917,0.13812637329101562,-1.4383769035339355
1710962123093689000,2.062689208984375,7.783297538757324,-2.2403621673583984,-4.122377872467041
1710962123151599400,2.120599365234375,0.11518287658691406,-1.9631006717681885,0.00008749961853027344
1710962123209510000,2.178510009765625,-8.847146034240723,0.6142765283584595,0.9553782939910889
1710962123267420200,2.236420166015625,-1.9482793807983398,-1.1022086143493652,-1.469594955444336
1710962123325330400,2.294330322265625,3.0072312355041504,-0.993375837802887,-1.8470906019210815
1710962123383241000,2.352240966796875,4.126044273376465,-0.21865327656269073,-0.5338928699493408
1710962123441151200,2.410151123046875,3.270796298980713,-0.19039347767829895,-0.10507278144359589
1710962123499061500,2.4680615234375,2.2399468421936035,-0.33586809039115906,-0.9593033194541931
1710962123556972000,2.525971923828125,3.372960090637207,-0.41698259115219116,-0.8145043849945068
1710962123614882300,2.58388232421875,3.196531295776367,-0.10864865779876709,-0.1309504508972168
1710962123672792800,2.641792724609375,2.400463104248047,-0.00035512447357177734,0.7190843820571899
1710962123730703000,2.699703125,-0.4295940399169922,-0.32716554403305054,1.8233642578125
1710962123788613600,2.757613525390625,-2.7836408615112305,-1.260918378829956,0.10121619701385498
1710962123846524000,2.81552392578125,-3.4596328735351562,-1.6479909420013428,-0.6460309028625488
1710962123904434200,2.87343408203125,-5.798135757446289,-1.308107614517212,1.5082554817199707
1710962123962344700,2.9313447265625,-4.303452491760254,-1.226318359375,-1.6330506801605225
1710962124020255000,2.9892548828125,-10.209117889404297,-2.929840087890625,-2.2823920249938965
1710962124078165500,3.04716552734375,-7.773540496826172,-1.1815104484558105,-3.0574088096618652
1710962124136075800,3.10507568359375,-5.65335750579834,-0.1803392916917801,1.0828320980072021
1710962124193986300,3.162986328125,-5.0230817794799805,-0.23784852027893066,-1.2684532403945923
1710962124251896600,3.220896484375,-5.758322715759277,-1.3295226097106934,-1.088168740272522
1710962124309806800,3.278806884765625,-1.261073112487793,-2.0685977935791016,2.205859899520874
1710962124367717400,3.33671728515625,4.539000034332275,-0.6383997797966003,2.1863198280334473
1710962124425627600,3.394627685546875,5.021340847015381,-0.6724123954772949,1.0085535049438477
1710962124483538200,3.4525380859375,1.3594188690185547,0.017615720629692078,-0.013271927833557129
1710962124541448400,3.510448486328125,0.01648426055908203,-1.0064597129821777,-1.4638984203338623
1710962124599359000,3.56835888671875,1.6751976013183594,-2.3569393157958984,-2.35872745513916
1710962124657269200,3.626269287109375,4.456126689910889,-4.054729461669922,-0.7578681707382202
1710962124715179800,3.6841796875,8.071178436279297,-0.5056681632995605,-7.1659345626831055
1710962124773090000,3.742090087890625,0.7928895950317383,1.3185374736785889,-1.9021196365356445
1710962124831000300,3.800000244140625,-0.5810317993164062,1.721081018447876,-0.5293849110603333
1710962124888910800,3.857910888671875,-0.777308464050293,1.2551218271255493,0.4671260714530945
1710962124946821000,3.915821044921875,0.6553850173950195,0.31511974334716797,-0.4594655930995941
1710962125004731600,3.973731689453125,2.826566219329834,-0.6972855925559998,-0.49974721670150757
1710962125062642000,4.031641845703125,2.286198616027832,-0.22896850109100342,-1.2520004510879517
1710962125120552200,4.08955224609375,2.4106202125549316,0.9431192874908447,-1.7334975004196167
1710962125178462700,4.147462646484375,2.367483615875244,-0.10413229465484619,-0.8310338854789734
1710962125236373000,4.205373046875,4.873937129974365,-1.163581132888794,0.47217637300491333
1710962125294283500,4.263283447265625,4.385801792144775,-1.0107414722442627,-0.40197527408599854
1710962125352193800,4.32119384765625,1.8197145462036133,-0.7851240038871765,1.5947628021240234
1710962125410104000,4.37910400390625,-0.031194686889648438,0.47888410091400146,2.0245890617370605
1710962125468014600,4.4370146484375,-2.7317142486572266,-0.4581983983516693,1.0272997617721558
1710962125525924900,4.4949248046875,-1.013167381286621,-2.717099666595459,-0.1597888469696045
1710962125583835100,4.552835205078125,-4.702736854553223,-0.003869354724884033,-0.8866980075836182
1710962125641745700,4.61074560546875,-7.521859169006348,-0.1659563183784485,-2.541820526123047
1710962125699656000,4.668656005859375,-14.919233322143555,0.4823046922683716,2.4827868938446045
1710962125757566200,4.726566162109375,-5.587751388549805,0.09849345684051514,-0.30421119928359985
1710962125815476700,4.784476806640625,-5.643829345703125,1.2699378728866577,0.0303308367729187
1710962125873387000,4.842386962890625,-10.473362922668457,-0.17847508192062378,-0.7291130423545837
1710962125931297300,4.90029736328125,-5.690245628356934,-0.3438902199268341,0.16531890630722046
1710962125989207600,4.95820751953125,-2.964076042175293,-1.0035068988800049,-0.8889898061752319
1710962126047118000,5.0161181640625,-1.8536357879638672,-0.6065891981124878,-0.43348073959350586
1710962126105028400,5.0740283203125,4.285842418670654,-0.5918715000152588,2.480607032775879
1710962126162938600,5.131938720703125,4.44234561920166,0.0328974723815918,1.7705682516098022
1710962126220849000,5.189848876953125,7.868559837341309,-1.3025096654891968,-1.3901970386505127
1710962126278759400,5.247759521484375,7.251415252685547,-2.57611083984375,0.7115750908851624
1710962126336669700,5.305669677734375,7.277975082397461,-1.8674298524856567,-0.13275015354156494
1710962126394580000,5.363580078125,5.694097518920898,-0.1350298523902893,-1.2228137254714966
1710962126452490200,5.421490234375,1.7704625129699707,1.0955713987350464,-0.799114465713501
1710962126510400500,5.479400390625,-1.0693025588989258,0.5867112874984741,-0.3201010227203369
1710962126568310800,5.537310791015625,1.682912826538086,1.1558582782745361,-0.24311578273773193
1710962126626221300,5.59522119140625,0.5229415893554688,0.8043027520179749,0.2196429967880249
1710962126684131600,5.653131591796875,2.386052131652832,0.3903469741344452,-0.6126923561096191
1710962126742041900,5.711041748046875,2.7657179832458496,0.5767511129379272,0.060619354248046875
1710962126799952100,5.7689521484375,3.514556884765625,0.6099684238433838,-0.21799790859222412
1710962126857862400,5.8268623046875,4.120838642120361,0.1038442999124527,-0.121543288230896
1710962126915772700,5.884772705078125,4.831738471984863,-0.17796728014945984,-0.011386275291442871
1710962126973683200,5.94268310546875,2.602936267852783,-1.1293495893478394,-0.22270476818084717
1710962127031593500,6.000593505859375,2.892000198364258,0.31343185901641846,0.4211362898349762
1710962127089503700,6.058503662109375,-0.046924591064453125,-0.7778565287590027,0.40117397904396057
1710962127147414000,6.1164140625,0.6519365310668945,-1.4453667402267456,0.9368233680725098
1710962127205324300,6.17432421875,-3.9696617126464844,-1.248398780822754,1.6132961511611938
1710962127263234600,6.232234619140625,-6.048810958862305,0.35114747285842896,-1.050663948059082
1710962127321144800,6.290144775390625,-7.795884132385254,0.11724250018596649,1.1547746658325195
1710962127379055000,6.34805517578125,-6.4690704345703125,-0.5626396536827087,-1.0134519338607788
1710962127436965400,6.40596533203125,-6.957266807556152,-0.46176615357398987,-0.42261359095573425
1710962127494875600,6.463875732421875,-8.344269752502441,-0.4476333260536194,0.17004182934761047
1710962127552786000,6.521785888671875,-5.590551376342773,-1.225325584411621,-1.345131516456604
1710962127610696200,6.5796962890625,-3.4894790649414062,-0.54974764585495,-0.28529325127601624
1710962127668606500,6.6376064453125,-2.772000312805176,-0.8286300897598267,3.5867419242858887
1710962127726516700,6.695516845703125,-0.8717451095581055,-0.7978807687759399,1.2552945613861084
1710962127784427000,6.753427001953125,1.0391263961791992,-0.573264479637146,1.0517206192016602
1710962127842337300,6.811337158203125,-0.5154695510864258,-0.5568457841873169,0.13674592971801758
1710962127900247600,6.86924755859375,3.191209316253662,-0.5615772604942322,-0.8959997296333313
1710962127958157800,6.92715771484375,5.563231468200684,-1.497133731842041,-0.7129937410354614
1710962128016068000,6.985068115234375,6.453024864196777,0.41687119007110596,-3.3775064945220947
1710962128073978400,7.042978271484375,5.949075698852539,0.2568092942237854,-1.5632989406585693
1710962128131888600,7.100888671875,2.282015323638916,0.8753432631492615,-0.2704000771045685
1710962128189799000,7.158798828125,0.25193119049072266,0.7846331000328064,-1.3852969408035278
1710962128247709200,7.216709228515625,1.9574546813964844,0.42917126417160034,-0.39212095737457275
1710962128305619500,7.274619384765625,-0.8152399063110352,0.2560041546821594,0.5303900837898254
1710962128363529500,7.332529541015625,-0.4486684799194336,-0.4698149561882019,-1.1622340679168701
1710962128421439700,7.390439697265625,-0.14820003509521484,-0.45129185914993286,-1.601538062095642
1710962128479350000,7.44835009765625,-1.1569852828979492,0.0637703537940979,-0.4545029401779175
1710962128537260300,7.50626025390625,-0.061553001403808594,0.10477447509765625,-0.04147648811340332
1710962128595170600,7.564170654296875,0.5199928283691406,0.46620798110961914,0.20012101531028748
1710962128653080800,7.622080810546875,1.2136554718017578,0.7449080348014832,0.14781039953231812
1710962128710990800,7.679990966796875,-1.6716299057006836,0.5069159865379333,1.1638184785842896
1710962128768901000,7.737901123046875,-0.8145179748535156,0.5033619999885559,0.36802908778190613
1710962128826811400,7.795811279296875,-0.5176477432250977,0.6190563440322876,1.2452949285507202
1710962128884721700,7.8537216796875,0.8972225189208984,0.4189240038394928,0.19927853345870972
1710962128942631700,7.911631591796875,1.528397560119629,0.4936786890029907,-0.2854123115539551
1710962129000542000,7.9695419921875,0.18496417999267578,0.9449169039726257,-0.33582258224487305
1710962129058452200,8.0274521484375,-0.7733755111694336,0.76284259557724,-0.010991513729095459
1710962129116362200,8.0853623046875,-0.11670494079589844,0.47465094923973083,0.308329313993454
1710962129174272500,8.1432724609375,1.2494211196899414,-0.08318094909191132,-0.24636894464492798
1710962129232182800,8.201182861328125,-0.20332622528076172,0.01585334539413452,-1.3967323303222656
1710962129290092800,8.2590927734375,1.0706510543823242,0.1907254457473755,-1.0854356288909912
1710962129348003000,8.317003173828125,1.7799954414367676,0.1445513665676117,-2.034971237182617
1710962129405913000,8.3749130859375,4.961147785186768,0.57928466796875,-0.4064701795578003
1710962129463823400,8.4328232421875,3.3153810501098633,-0.1084321141242981,0.34644293785095215
1710962129521733600,8.490733642578125,3.4051666259765625,-0.2891284227371216,1.4941818714141846
1710962129579643600,8.5486435546875,2.143604278564453,0.11743554472923279,0.19218969345092773
1710962129637553700,8.6065537109375,2.3561601638793945,-0.6194238066673279,-0.731242299079895
1710962129695464000,8.6644638671875,-1.7325172424316406,-0.593539834022522,-0.25859594345092773
1710962129753374000,8.7223740234375,-2.3991308212280273,-0.09856551885604858,-0.1985243558883667
1710962129811284200,8.7802841796875,0.42554473876953125,-0.10735487937927246,1.780355453491211
1710962129869194200,8.8381943359375,0.5139389038085938,-0.03920435905456543,1.742608904838562
1710962129927104300,8.896104248046875,-1.3985671997070312,-1.2081298828125,0.6896718740463257
1710962129985014500,8.9540146484375,-4.999910354614258,-1.0872282981872559,-0.5502498149871826
1710962130042924500,9.011924560546875,-5.699318885803223,-0.3827976584434509,-0.7595922946929932
1710962130100834600,9.06983447265625,-5.91328239440918,0.5521870255470276,-1.3504209518432617
1710962130158744600,9.12774462890625,-10.326508522033691,-0.3838491439819336,0.8709474802017212
1710962130216654800,9.18565478515625,-7.244529724121094,-0.6770659685134888,0.039360880851745605
1710962130274564900,9.24356494140625,-3.535710334777832,-0.413730263710022,-0.4587077498435974
1710962130332475000,9.301474853515625,-2.4912490844726562,-0.08872437477111816,-1.0044338703155518
1710962130390385000,9.359385009765624,-3.9346561431884766,-1.4406453371047974,1.175822138786316
1710962130448295000,9.417294921875,2.0159482955932617,-0.5966417789459229,-0.49770718812942505
1710962130506205200,9.475205078125,1.5756597518920898,0.1880486011505127,0.7459285259246826
1710962130564115200,9.533115234375,2.0822668075561523,0.2553635239601135,-0.6206985712051392
1710962130622025200,9.591025146484375,3.4746289253234863,0.07890671491622925,-1.312893033027649
1710962130679935200,9.648935302734374,3.22636079788208,-2.341379404067993,-1.6093223094940186
1710962130737845200,9.70684521484375,4.772397994995117,-0.9831215143203735,-3.3876516819000244
1710962130795755300,9.76475537109375,6.117643356323242,0.20613300800323486,-1.357812762260437
1710962130853665300,9.822665283203126,3.2137417793273926,0.8316242694854736,-0.3248552680015564
1710962130911575300,9.8805751953125,1.4844589233398438,1.4870202541351318,-1.5554051399230957
1710962130969485300,9.9384853515625,1.7225990295410156,1.321429967880249,-0.24063339829444885
1710962131027395000,9.99639501953125,-0.1810750961303711,1.4027997255325317,-0.36415401101112366
1710962131085305000,10.05430517578125,0.1405506134033203,0.8080779314041138,0.5203396677970886
1710962131143215000,10.112215087890625,2.1495728492736816,0.6148289442062378,-0.9260996580123901
1710962131201125000,10.170125,3.480978488922119,0.4668083190917969,-1.0552839040756226
1710962131259035100,10.22803515625,3.380863666534424,0.8511860966682434,-1.0433897972106934
1710962131316945000,10.28594482421875,4.279857158660889,0.3059346675872803,-0.3932045102119446
1710962131374855000,10.34385498046875,2.2906742095947266,-0.10045313835144043,0.37939900159835815
1710962131432765000,10.401764892578125,3.4803848266601562,-0.7351821064949036,-0.9248889088630676
1710962131490674700,10.4596748046875,2.1718153953552246,-0.27702000737190247,-0.15261751413345337
1710962131548584700,10.517584716796875,1.026810646057129,0.22946995496749878,0.7112411856651306
1710962131606494700,10.57549462890625,0.09032344818115234,0.4484098553657532,0.6411588191986084
1710962131664404500,10.633404541015626,-2.3799991607666016,-0.05349308252334595,2.7133560180664062
1710962131722314500,10.691314453125,-4.4228925704956055,0.40829211473464966,-0.6135504841804504
1710962131780224300,10.749224365234374,-4.67540168762207,-1.0724551677703857,0.8262368440628052
1710962131838134300,10.80713427734375,-5.795677185058594,-0.4908040165901184,0.0889536440372467
1710962131896044000,10.8650439453125,-6.412895202636719,-0.9234716892242432,1.3300340175628662
1710962131953954000,10.9229541015625,-6.881770133972168,-0.3077350854873657,1.0568945407867432
1710962132011863800,10.98086376953125,-9.016695976257324,-1.0791181325912476,-2.263441562652588
1710962132069773800,11.03877392578125,-8.015385627746582,-2.8021507263183594,-1.7136353254318237
1710962132127683600,11.09668359375,-6.14467716217041,-2.6686291694641113,-0.4873058795928955
1710962132185593300,11.15459326171875,-0.014278411865234375,-1.625288486480713,0.5752496123313904
1710962132243503400,11.21250341796875,1.768423080444336,-1.085705041885376,1.524126648902893
1710962132301413000,11.2704130859375,3.1676502227783203,-0.5384318828582764,1.707686424255371
1710962132359323000,11.328322998046875,3.158477783203125,0.11126643419265747,-0.44946053624153137
1710962132417233000,11.38623291015625,5.56374979019165,0.4774593114852905,-0.41660255193710327
1710962132475142700,11.444142578125,6.642467498779297,0.6241430044174194,-2.1578190326690674
1710962132533052400,11.502052490234375,5.3438897132873535,0.6717445254325867,-1.0262538194656372
1710962132590962200,11.559962158203126,5.009848117828369,0.8316019773483276,-2.600865602493286
1710962132648872000,11.617871826171875,-0.645904541015625,0.8137015700340271,-0.771578311920166
1710962132706781700,11.67578173828125,0.2214641571044922,0.3353729248046875,-0.34517812728881836
1710962132764691500,11.73369140625,1.208531379699707,1.4415230751037598,-1.0113009214401245
1710962132822601200,11.791601318359374,-4.677617073059082,0.6484580039978027,1.863792061805725
1710962132880511000,11.849510986328125,2.171980381011963,-0.4824278950691223,-1.260561227798462
1710962132938420700,11.907420654296875,4.652785301208496,0.07980293035507202,-1.4335591793060303
1710962132996330500,11.96533056640625,4.064614772796631,0.18533256649971008,-0.6849209070205688
1710962133054240300,12.023240234375,4.497746467590332,0.13666066527366638,-1.133517861366272
1710962133112150000,12.08114990234375,3.7531347274780273,-0.24559779465198517,0.46306347846984863
1710962133170059800,12.139059814453125,5.491387367248535,-0.8723715543746948,0.23901039361953735
1710962133227969500,12.196969482421874,1.6112189292907715,-0.3766535520553589,-1.8314956426620483
1710962133285879300,12.25487939453125,1.5917458534240723,0.13504421710968018,-0.44893449544906616
1710962133343788800,12.312788818359374,-1.3300457000732422,0.5181854963302612,0.14289867877960205
1710962133401698600,12.370698486328125,-3.6604528427124023,0.24468660354614258,0.2672503590583801
1710962133459608300,12.4286083984375,-3.8761682510375977,-0.3313765227794647,0.5115088820457458
1710962133517517800,12.486517822265625,-9.605953216552734,0.043535709381103516,3.7081246376037598
1710962133575427600,12.544427490234375,-6.301076889038086,0.37538397312164307,-0.4879331886768341
1710962133633337300,12.60233740234375,-6.601490020751953,0.3463711738586426,0.539289653301239
1710962133691246800,12.660246826171875,-8.365072250366211,1.5991419553756714,2.326521873474121
1710962133749156600,12.718156494140626,-8.520378112792969,1.1440802812576294,-1.567394495010376
1710962133807066000,12.776066162109375,-7.679780960083008,0.09108644723892212,1.3712905645370483
1710962133864976000,12.833975830078124,-2.967496871948242,0.3223922848701477,1.6849393844604492
1710962133922885600,12.8918857421875,-0.45304393768310547,-0.005183108150959015,3.554947853088379
1710962133980795100,12.949795166015624,0.8208580017089844,-0.8990304470062256,1.0961945056915283
1710962134038704600,13.00770458984375,4.411762237548828,-0.5419267416000366,-0.5125944018363953
1710962134096614400,13.065614501953124,5.468292236328125,-0.2262822687625885,-0.633897066116333
1710962134154524000,13.12352392578125,6.610139846801758,-0.16347071528434753,0.6224992275238037
1710962134212433700,13.18143359375,6.077920913696289,0.40503180027008057,-2.743591070175171
1710962134270343200,13.23934326171875,5.2694830894470215,0.856887698173523,-2.516451358795166
1710962134328252700,13.297252685546875,1.5618467330932617,1.2491865158081055,-1.8115708827972412
1710962134386162400,13.355162353515626,-1.5578393936157227,0.6345274448394775,0.30247581005096436
1710962134444072000,13.413072021484375,4.286004543304443,0.636495053768158,-1.282689094543457
1710962134501981400,13.4709814453125,-0.6653900146484375,1.225914716720581,0.00975567102432251
1710962134559891000,13.528890869140625,-1.5470161437988281,-0.29604023694992065,0.8540449738502502
1710962134617800700,13.58680078125,2.53062105178833,-0.137234628200531,-0.7078631520271301
1710962134675710200,13.644710205078125,4.33040189743042,-0.02164638042449951,-0.9066320657730103
1710962134733619700,13.70261962890625,2.9403748512268066,0.0012864470481872559,-0.06604045629501343
1710962134791529200,13.760529296875,5.569361686706543,0.010091334581375122,0.010577499866485596
1710962134849438700,13.818438720703124,4.991877555847168,-0.14061486721038818,1.162721872329712
1710962134907348200,13.87634814453125,5.707304954528809,-0.648227870464325,1.114276647567749
1710962134965258000,13.934258056640624,2.872133731842041,-0.19959157705307007,1.2757110595703125
1710962135023167500,13.99216748046875,0.9495515823364258,0.21160823106765747,1.0066457986831665
1710962135081077000,14.050076904296875,-2.5362319946289062,-0.012968271970748901,-0.11026035249233246
1710962135138986500,14.107986572265625,-2.525135040283203,-0.13446038961410522,-2.2146072387695312
1710962135196896000,14.16589599609375,-5.651396751403809,-0.016275227069854736,1.7855664491653442
1710962135254805500,14.223805419921876,-2.7256078720092773,-0.20871776342391968,-1.9437968730926514
1710962135312715000,14.281715087890625,-8.289166450500488,-1.0183939933776855,1.35105562210083
1710962135370624500,14.33962451171875,-12.165877342224121,-0.6765888929367065,0.46735304594039917
1710962135428534000,14.397533935546875,-7.381692886352539,-0.5778101682662964,-0.7488678693771362
1710962135486443500,14.455443603515626,-10.39122200012207,-0.6754549145698547,1.5887295007705688
1710962135544353000,14.51335302734375,-3.713456153869629,-0.83607417345047,-1.8255140781402588
1710962135602262500,14.571262451171876,-2.865436553955078,-0.12687638401985168,0.9661101698875427
1710962135660172000,14.629172119140625,-1.811396598815918,0.04171392321586609,1.9653652906417847
1710962135718081500,14.68708154296875,-0.656158447265625,-0.3576717674732208,1.7623796463012695
1710962135775991000,14.744990966796875,3.804868221282959,-0.24860695004463196,1.3317283391952515
1710962135833900500,14.802900634765624,5.013156890869141,-0.6404329538345337,0.1297624111175537
1710962135891810000,14.86081005859375,5.992652416229248,-1.435394048690796,-0.3119938373565674
1710962135949719600,14.918719482421874,5.861830711364746,-0.7641715407371521,-1.9887070655822754
1710962136007629000,14.976629150390625,5.628899574279785,-0.06183171272277832,-2.795405626296997
1710962136065538600,15.03453857421875,3.2729740142822266,0.9190322160720825,-2.262408494949341
1710962136123448000,15.092447998046875,0.2784595489501953,1.7610342502593994,-2.1381378173828125
1710962136181357600,15.150357666015625,-1.356612205505371,1.7626771926879883,-0.7469483017921448
1710962136239267300,15.208267333984375,0.9486474990844727,1.0535691976547241,-0.28717538714408875
1710962136297176600,15.266176513671875,0.260650634765625,0.5978243350982666,-0.5344081521034241
1710962136355086300,15.32408642578125,-0.14199447631835938,0.06188645958900452,-0.09273618459701538
1710962136412995600,15.38199560546875,1.7467107772827148,0.3206395208835602,-0.1264801025390625
1710962136470905300,15.4399052734375,3.192798614501953,0.4081372022628784,-0.2811775505542755
1710962136528814600,15.497814697265625,4.369984149932861,0.49594929814338684,-0.7897888422012329
1710962136586724400,15.555724365234376,4.617546558380127,0.5091159343719482,-0.46833574771881104
1710962136644633600,15.613633544921875,4.540082931518555,0.07827556133270264,0.6369256973266602
1710962136702543000,15.671543212890626,4.511194705963135,-0.1569964587688446,0.20499053597450256
1710962136760452600,15.72945263671875,4.514108657836914,-0.6586412191390991,0.18246321380138397
1710962136818362000,15.787362060546876,2.203456401824951,-0.37610960006713867,0.172145277261734
1710962136876271600,15.845271728515625,-0.9978342056274414,-1.1545863151550293,1.3119202852249146
1710962136934181000,15.90318115234375,-5.593453407287598,0.03655511140823364,1.14524507522583
1710962136992090600,15.961090576171875,-5.986820220947266,-0.0550457239151001,-0.12339785695075989
1710962137050000100,16.019000244140624,-7.300876617431641,-0.8937987685203552,1.1027510166168213
1710962137107909600,16.07690966796875,-10.441909790039062,-1.4815514087677002,3.7749359607696533
1710962137165819100,16.134819091796874,-2.891903877258301,0.18985548615455627,-2.222858190536499
1710962137223728600,16.192728759765625,-11.759185791015625,0.36885660886764526,-0.9471277594566345
1710962137281638100,16.25063818359375,-9.254864692687988,-0.11274552345275879,-1.9704577922821045
1710962137339547600,16.308547607421875,-3.749195098876953,-0.4743868112564087,-0.4221937656402588
1710962137397457200,16.36645703125,0.4630441665649414,-0.15625476837158203,2.3549623489379883
1710962137455366700,16.42436669921875,-0.6755990982055664,0.04818916320800781,0.3287157416343689
1710962137513276200,16.482276123046876,-0.1480112075805664,-0.1018972396850586,1.2007434368133545
1710962137571185700,16.540185546875,1.9431352615356445,0.27098798751831055,-0.17544281482696533
1710962137629095200,16.59809521484375,4.262243747711182,-0.373846173286438,-0.28901034593582153
1710962137687004700,16.656004638671874,5.603194713592529,-0.5071958899497986,-0.5257263779640198
1710962137744914200,16.7139140625,5.070247173309326,-0.19787386059761047,-0.7164995074272156
1710962137802823700,16.77182373046875,4.750768184661865,-0.007123589515686035,-0.35084474086761475
1710962137860733200,16.829733154296875,5.537795066833496,0.1593003273010254,-0.6603457927703857
1710962137918642700,16.887642578125,2.4195170402526855,0.22855722904205322,-0.018979936838150024
1710962137976552200,16.94555224609375,0.3680610656738281,0.1505562663078308,-0.37339839339256287
1710962138034461700,17.003461669921876,2.142322540283203,0.0731579065322876,-0.6986628770828247
1710962138092371200,17.06137109375,0.43740081787109375,0.8332471251487732,0.3586033880710602
1710962138150280700,17.11928076171875,-0.4928417205810547,0.6958364844322205,-0.1857781559228897
1710962138208190200,17.177190185546873,-0.5258312225341797,0.4233870804309845,-0.27618348598480225
1710962138266099700,17.235099609375,0.18450546264648438,0.24009132385253906,-0.33804309368133545
1710962138324009200,17.29300927734375,-0.33879566192626953,0.08572942018508911,-0.32905101776123047
1710962138381918700,17.350918701171874,-0.37454700469970703,-0.048873744904994965,-0.32554107904434204
1710962138439828200,17.408828125,0.4649314880371094,0.005010165274143219,-0.47004497051239014
1710962138497737700,17.46673779296875,0.9189434051513672,-0.028360620141029358,-0.3437003195285797
1710962138555647200,17.524647216796875,2.1703200340270996,-0.15703660249710083,-0.6928387880325317
1710962138613556700,17.582556640625,2.942467212677002,0.04461175203323364,-0.3907434940338135
1710962138671466200,17.64046630859375,4.614101886749268,-0.1382954716682434,-0.607252836227417
1710962138729375700,17.698375732421876,3.9739222526550293,-0.1655176281929016,0.0955265611410141
1710962138787285200,17.75628515625,3.8088040351867676,-0.45913028717041016,0.34392476081848145
1710962138845194800,17.81419482421875,2.861959934234619,-0.7142716646194458,-0.4066062271595001
1710962138903104300,17.872104248046874,0.9912843704223633,-0.32124412059783936,0.384369820356369
1710962138961013800,17.930013671875,0.6464853286743164,0.5622650384902954,-0.12430091202259064
1710962139018923300,17.98792333984375,-1.7041826248168945,0.42682456970214844,0.7655166387557983
1710962139076832800,18.045832763671875,-2.8970565795898438,0.7909374237060547,0.9276186227798462
1710962139134742300,18.1037421875,-4.203534126281738,0.6373004913330078,-1.076025366783142
1710962139192651500,18.161651611328125,-7.509405136108398,-0.4834332764148712,1.6469576358795166
1710962139250561000,18.21956103515625,-6.606995582580566,-0.1528017818927765,-0.34151360392570496
1710962139308470500,18.277470458984375,-7.122801780700684,-0.38142383098602295,0.4351913332939148
1710962139366380000,18.335380126953126,-8.191925048828125,0.11873495578765869,0.738584041595459
1710962139424289500,18.39328955078125,-5.826564788818359,0.7258306741714478,-0.5653477311134338
1710962139482199000,18.451198974609376,-5.073399543762207,0.5082001686096191,0.15675808489322662
1710962139540108500,18.509108642578123,-2.962444305419922,0.26744407415390015,0.4122661054134369
1710962139598018000,18.56701806640625,-0.043198585510253906,0.061893969774246216,1.3572745323181152
1710962139655927300,18.62492724609375,0.07528114318847656,0.2214346081018448,0.927625298500061
1710962139713836800,18.6828369140625,1.7930669784545898,0.05723977088928223,0.9141393303871155
1710962139771746300,18.740746337890624,2.552506923675537,-0.10746891796588898,-0.4266038239002228
1710962139829655800,18.79865576171875,4.388598442077637,-0.7761824131011963,-0.032379716634750366
1710962139887565300,18.8565654296875,5.194322109222412,-1.5831193923950195,-0.1672040820121765
1710962139945474600,18.914474609375,6.658576011657715,-0.8658556938171387,-1.3051142692565918
1710962140003384000,18.972384033203124,4.6630859375,0.013895988464355469,-0.5184624791145325
1710962140061293600,19.03029345703125,-0.38467979431152344,0.03613400459289551,0.8418686389923096
1710962140119203000,19.088203125,0.3880271911621094,0.5671055316925049,-0.5943148136138916
1710962140177112300,19.1461123046875,3.080272674560547,1.1348943710327148,-0.19775360822677612
1710962140235021800,19.204021728515624,-2.3522472381591797,0.5807205438613892,0.397976815700531
1710962140292931300,19.261931396484375,0.36439990997314453,0.14485132694244385,-1.0837557315826416
1710962140350840600,19.319840576171874,0.6085777282714844,-0.0942467451095581,-0.34923940896987915
1710962140408750000,19.37775,-0.005863189697265625,-0.02274787425994873,-0.8065546154975891
1710962140466659600,19.43565966796875,-0.02075672149658203,-0.05248057842254639,-0.3157075047492981
1710962140524569000,19.493569091796875,-0.06292247772216797,0.15612179040908813,0.22864335775375366
1710962140582478300,19.551478271484374,0.5639076232910156,0.10753738880157471,0.22401157021522522
1710962140640387800,19.609387939453125,1.0479097366333008,0.12629520893096924,0.007152080535888672
1710962140698297000,19.667297119140624,0.8638706207275391,0.24415189027786255,0.026139020919799805
1710962140756206600,19.72520654296875,0.36330413818359375,0.2902124524116516,0.1781335175037384
1710962140814115800,19.78311572265625,0.7731113433837891,0.27398574352264404,-0.356279194355011
1710962140872025300,19.841025390625,1.2732067108154297,0.2213084101676941,-0.48225831985473633
1710962140929934600,19.8989345703125,2.258474349975586,0.27106600999832153,-0.8942390084266663
1710962140987844000,19.956843994140623,4.303849697113037,0.15131127834320068,-0.9597277641296387
1710962141045753600,20.014753662109374,5.3462300300598145,-0.4712755084037781,-0.4901506304740906
1710962141103662800,20.072662841796873,4.420501708984375,-0.7309874892234802,0.1912270188331604
1710962141161572400,20.130572265625,1.6563363075256348,-1.4233193397521973,0.6416857242584229
1710962141219481600,20.188481689453123,2.5604658126831055,-1.3536534309387207,-1.1264424324035645
1710962141277390800,20.246390869140626,-0.28692150115966797,-0.22495567798614502,-0.13367822766304016
1710962141335300400,20.30430029296875,-2.0632028579711914,0.2269045114517212,-0.07029338926076889
1710962141393209600,20.362209716796876,-5.488044738769531,1.139336347579956,0.5240916013717651
1710962141451119000,20.420119140625,-2.1640167236328125,1.0785328149795532,0.38056817650794983
1710962141509028400,20.4780283203125,-5.8359880447387695,1.0210779905319214,1.4827547073364258
1710962141566937600,20.5359375,-4.267454147338867,0.9699046611785889,1.6256906986236572
1710962141624847000,20.59384716796875,-6.048301696777344,0.6388640999794006,0.07704082131385803
1710962141682756400,20.65175634765625,-7.18514347076416,0.3279416561126709,0.8313043117523193
1710962141740665900,20.709665771484374,-7.897534370422363,0.8201693296432495,0.13222557306289673
1710962141798575000,20.7675751953125,-6.783025741577148,0.3634558916091919,-1.259300708770752
1710962141856484400,20.825484375,-5.812966346740723,-0.23554569482803345,0.2067362368106842
1710962141914393900,20.883393798828124,-2.514512062072754,0.04701387882232666,0.8593233227729797
1710962141972303000,20.94130322265625,0.1003274917602539,-0.03546631336212158,2.608243942260742
1710962142030212400,20.99921240234375,1.309539794921875,-0.30562931299209595,1.6062326431274414
1710962142088121900,21.057121826171876,2.3801064491271973,-0.5923667550086975,0.6411406993865967
1710962142146031000,21.115031005859375,4.868032932281494,-0.3726420998573303,-0.9009822607040405
1710962142203940400,21.1729404296875,6.239926338195801,-0.7961643934249878,-0.2751859724521637
1710962142261849600,21.230849609375,5.944880962371826,-0.2618730664253235,-1.4908162355422974
1710962142319758800,21.2887587890625,5.300353527069092,0.004997730255126953,-1.7012578248977661
1710962142377668400,21.34666845703125,3.1631083488464355,-0.015229225158691406,-1.2291240692138672
1710962142435577600,21.40457763671875,-1.0178279876708984,0.691792368888855,-0.8142365217208862
1710962142493486800,21.46248681640625,3.3365631103515625,1.4195501804351807,-0.8409560918807983
1710962142551396000,21.52039599609375,-1.8295392990112305,0.6438663005828857,0.6947187781333923
1710962142609305300,21.578305419921875,-0.10703468322753906,0.11359775066375732,-0.7862235307693481
1710962142667214600,21.636214599609374,1.2181243896484375,0.11684823036193848,-0.15083540976047516
1710962142725124000,21.6941240234375,1.4266605377197266,0.3105817437171936,-0.5389975309371948
1710962142783033300,21.752033447265624,0.9049530029296875,0.42460018396377563,-0.5018234848976135
1710962142840942600,21.809942626953124,2.2129859924316406,0.7536036372184753,-0.6584892272949219
1710962142898851800,21.867851806640626,2.7443747520446777,0.7314250469207764,-0.6228103637695312
1710962142956761000,21.925760986328125,4.9499359130859375,0.5426217913627625,-0.8004695177078247
1710962143014670300,21.98367041015625,3.5782361030578613,0.5449533462524414,-0.3402729630470276
1710962143072579600,22.04157958984375,4.031121730804443,0.5350288152694702,-0.20511692762374878
1710962143130488800,22.09948876953125,0.8676853179931641,0.08838683366775513,-0.1464933156967163
1710962143188398000,22.157398193359374,-0.985621452331543,-0.8519378900527954,0.9232232570648193
1710962143246307300,22.215307373046876,-0.6442146301269531,-1.4850449562072754,1.1880784034729004
1710962143304216600,22.273216552734375,-2.0605249404907227,-1.0149749517440796,1.1582543849945068
1710962143362125800,22.331125732421874,-3.3550119400024414,-0.2344655692577362,0.47131970524787903
1710962143420035000,22.38903515625,-2.854473114013672,-0.3461933434009552,0.1811596155166626
1710962143477944300,22.4469443359375,-3.4216556549072266,-0.08354347944259644,0.1744334101676941
1710962143535853600,22.504853515625,-6.9559831619262695,-0.7233206033706665,1.0512028932571411
1710962143593762800,22.5627626953125,-8.279029846191406,0.6551381349563599,-0.22226887941360474
1710962143651672000,22.620672119140625,-7.918822288513184,0.40794864296913147,0.0053841471672058105
1710962143709581000,22.6785810546875,-5.6046552658081055,0.06904676556587219,-0.8615752458572388
1710962143767490300,22.736490234375,-4.661073684692383,-1.0646053552627563,0.49892839789390564
1710962143825399600,22.794399658203126,-2.1065244674682617,-1.493470311164856,0.782372772693634
1710962143883308800,22.852308837890625,-1.3491430282592773,-1.8273333311080933,1.6884567737579346
1710962143941218000,22.910218017578124,0.7668819427490234,-1.1960529088974,0.8423211574554443
1710962143999127000,22.968126953125,-0.44544315338134766,-0.5498390793800354,0.2823091149330139
1710962144057036300,23.026036376953126,0.7951927185058594,0.7393948435783386,-2.1607515811920166
1710962144114945500,23.083945556640625,-1.3337860107421875,1.4672163724899292,-1.4468942880630493
1710962144172854500,23.1418544921875,1.895390510559082,1.4438650608062744,-0.45750558376312256
1710962144230763800,23.199763671875,3.1705946922302246,1.503584623336792,1.6573196649551392
1710962144288673000,23.257673095703126,6.32613468170166,1.2534962892532349,1.4976277351379395
1710962144346582300,23.315582275390625,5.6004204750061035,0.9991205930709839,1.377576231956482
1710962144404491300,23.3734912109375,5.020360946655273,0.6875540614128113,1.3589553833007812
1710962144462400500,23.431400390625,3.889657497406006,0.6603088974952698,1.2138841152191162
1710962144520309500,23.4893095703125,3.2069411277770996,0.5517686605453491,0.764793872833252
1710962144578218800,23.54721875,1.942924976348877,0.3077710270881653,0.40764927864074707
1710962144636128000,23.6051279296875,1.6550049781799316,0.11954230070114136,-0.3627333641052246
1710962144694037000,23.663037109375,3.068559169769287,-0.2941212058067322,0.31569933891296387
1710962144751946000,23.720946044921874,5.078411102294922,-0.3810259699821472,0.644514799118042
1710962144809855200,23.778855224609377,6.806331634521484,-0.9353588819503784,1.240816593170166
1710962144867764200,23.83676416015625,5.8413848876953125,-1.3798656463623047,2.8927512168884277
1710962144925673500,23.894673583984375,4.932065486907959,-1.993552803993225,1.9806160926818848
1710962144983582500,23.95258251953125,2.401089668273926,-1.9270166158676147,2.466857433319092
1710962145041491700,24.01049169921875,-0.5141239166259766,-0.35113656520843506,0.7543996572494507
1710962145099400700,24.068400634765624,-1.766789436340332,0.2466920018196106,0.2960960865020752
1710962145157309700,24.126309814453126,-4.449485778808594,0.8926652073860168,0.186781644821167
1710962145215219000,24.184218994140625,-5.291103363037109,0.7800039052963257,-0.0953972339630127
1710962145273128000,24.2421279296875,-4.226247787475586,0.8330333232879639,-0.5735596418380737
1710962145331037000,24.300036865234375,-5.608642578125,1.1427725553512573,0.2735617160797119
1710962145388946200,24.3579462890625,-6.701859474182129,1.071170449256897,-0.015687942504882812
1710962145446855200,24.415855224609373,-5.6788330078125,0.2051045000553131,1.0617358684539795
1710962145504764200,24.47376416015625,-7.409716606140137,0.6623168587684631,1.6725642681121826
1710962145562673200,24.531673095703123,-4.697157859802246,1.307299256324768,1.691537618637085
1710962145620582400,24.58958251953125,-3.6455936431884766,1.4202313423156738,1.95172119140625
1710962145678491400,24.647491455078125,-5.016092300415039,0.18432724475860596,0.8191277980804443
1710962145736400400,24.705400390625,-5.334403991699219,-0.40963810682296753,-2.1574440002441406
1710962145794309400,24.763309326171875,0.20566749572753906,-0.5359869003295898,-1.0302314758300781
1710962145852218400,24.82121826171875,-1.3153457641601562,-0.17447131872177124,-0.5659104585647583
1710962145910127400,24.87912744140625,0.25424861907958984,-0.799026608467102,1.7158074378967285
1710962145968036400,24.937036376953124,1.962876319885254,-0.8871446847915649,1.6675753593444824
1710962146025945300,24.9949453125,4.291031360626221,-2.099719285964966,1.4109041690826416
1710962146083854300,25.052854248046874,1.4793367385864258,-0.25586462020874023,-0.763266384601593
1710962146141763300,25.110763427734376,2.9368319511413574,-0.35025668144226074,-1.5266751050949097
1710962146199672300,25.16867236328125,3.6399197578430176,0.2522240877151489,-0.025234878063201904
1710962146257581300,25.226581298828126,6.146950721740723,-0.4433742165565491,0.9947026968002319
1710962146315490300,25.284490234375,4.941553592681885,-0.3297203779220581,0.9911320209503174
1710962146373399300,25.3423994140625,1.1133480072021484,0.4525679349899292,1.1119294166564941
1710962146431308300,25.400308349609375,1.1789875030517578,0.33949851989746094,0.2843019366264343
1710962146489217300,25.45821728515625,0.045365333557128906,0.3909999132156372,0.07545597851276398
1710962146547126300,25.516126220703125,0.5456409454345703,0.4164273738861084,-0.8420255184173584
1710962146605035300,25.57403515625,1.6467275619506836,0.6348658800125122,-0.5297431945800781
1710962146662944300,25.6319443359375,3.706136703491211,0.5327556133270264,-0.2315702736377716
1710962146720853000,25.68985302734375,6.100275993347168,0.8000385761260986,-0.7331181764602661
1710962146778762000,25.747761962890625,4.958009243011475,-0.7340875864028931,-0.05977427959442139
1710962146836671000,25.8056708984375,3.750502109527588,0.44097620248794556,-0.8234525322914124
1710962146894580000,25.863580078125,5.276288986206055,-0.374123752117157,-0.9606846570968628
1710962146952488700,25.92148876953125,3.064211368560791,-0.4326780438423157,-0.5576815605163574
1710962147010397700,25.979397705078124,-0.047061920166015625,0.28054624795913696,0.09687042236328125
1710962147068306700,26.037306640625,-1.2694578170776367,-0.09866905212402344,0.8616588115692139
1710962147126215700,26.095215576171874,-4.224671363830566,-0.5354132652282715,1.7617652416229248
1710962147184124400,26.15312451171875,-5.841731071472168,0.24964377284049988,1.2756915092468262
1710962147242033400,26.211033447265624,-6.295112609863281,-0.14287956058979034,0.4685935974121094
1710962147299942400,26.2689423828125,-6.652902603149414,-0.10821105539798737,1.2802798748016357
1710962147357851100,26.32685107421875,-9.00822925567627,-0.06651008129119873,1.7883834838867188
1710962147415760100,26.384760009765625,-10.014120101928711,0.8548332452774048,1.8611783981323242
1710962147473669000,26.442669189453124,-9.02192211151123,1.2064048051834106,1.5091195106506348
1710962147531577900,26.500577880859375,-8.084599494934082,1.3504393100738525,1.213552713394165
1710962147589486800,26.55848681640625,-4.005859375,-0.011287122964859009,0.5802438259124756
1710962147647395600,26.6163955078125,0.00818634033203125,-0.6237172484397888,2.4345715045928955
1710962147705304600,26.6743046875,2.216378688812256,-1.2729823589324951,0.8254883289337158
1710962147763213600,26.732213623046874,5.388705730438232,-1.5058250427246094,-0.6692328453063965
1710962147821122300,26.790122314453125,4.817224025726318,-0.20906567573547363,0.3536137342453003
1710962147879031300,26.84803125,2.3324713706970215,-0.2969963252544403,-0.6383185982704163
1710962147936940000,26.90593994140625,5.399284839630127,0.1680631786584854,0.18115150928497314
1710962147994849000,26.96384912109375,5.306482791900635,0.6722190380096436,0.8539212346076965
1710962148052757800,27.0217578125,3.0425543785095215,0.6861203908920288,0.21554887294769287
1710962148110666800,27.079666748046876,5.3028130531311035,0.44999051094055176,-0.17199766635894775
1710962148168575500,27.137575439453126,2.275862216949463,0.6315646767616272,0.018549829721450806
1710962148226484500,27.195484375,1.9479784965515137,0.09383180737495422,-0.20925273001194
1710962148284393200,27.253393310546876,2.111018657684326,0.2294095754623413,-0.548405647277832
1710962148342302200,27.31130224609375,0.2849254608154297,0.01111447811126709,0.35782843828201294
1710962148400211000,27.3692109375,-1.3354663848876953,-0.3501415252685547,0.17200148105621338
1710962148458119700,27.42711962890625,0.2174663543701172,-0.4394477605819702,0.11995700001716614
1710962148516028700,27.485028564453124,-0.9359760284423828,-0.22467899322509766,-1.028597116470337
1710962148573937400,27.5429375,-0.5987100601196289,-0.3080843687057495,-0.6006629467010498
1710962148631846400,27.600846435546874,-0.12967491149902344,0.7908045053482056,0.03511837124824524
1710962148689755100,27.658755126953125,-0.5963993072509766,0.30942076444625854,0.5265310406684875
1710962148747664000,27.716663818359375,-0.036637306213378906,-0.05083131790161133,0.4625808000564575
1710962148805572900,27.77457275390625,0.13132953643798828,-0.09752786159515381,-0.10571309924125671
1710962148863481600,27.832481689453125,0.36503124237060547,0.05382770299911499,0.24236026406288147
1710962148921390300,27.890390380859376,0.16700458526611328,0.14870309829711914,0.05405727028846741
1710962148979299300,27.94829931640625,1.0965023040771484,0.13070392608642578,-0.5273298025131226
1710962149037208000,28.0062080078125,2.3553357124328613,0.1441655158996582,-1.0382249355316162
1710962149095116800,28.06411669921875,2.916426658630371,0.49287986755371094,-1.0042413473129272
1710962149153025500,28.122025634765624,3.474940776824951,0.609596312046051,-0.8215808868408203
1710962149210934300,28.179934326171875,3.7528138160705566,0.4055454432964325,-0.6148710250854492
1710962149268843300,28.23784326171875,4.425461292266846,0.16524231433868408,-0.2648159861564636
1710962149326752000,28.295751953125,4.718204021453857,0.014957156032323837,-0.7093559503555298
1710962149384660700,28.35366064453125,1.0072240829467773,-0.38311004638671875,0.3508954644203186
1710962149442569500,28.411569580078126,2.9670395851135254,-0.8066128492355347,0.27199625968933105
1710962149500478200,28.469478271484373,0.5421733856201172,-0.3041754364967346,0.7423386573791504
1710962149558387200,28.52738720703125,-1.5645761489868164,0.3326568007469177,1.7574083805084229
1710962149616296000,28.5852958984375,-2.1740026473999023,0.30333447456359863,-1.3084737062454224
1710962149674204700,28.64320458984375,-7.122092247009277,0.11624135822057724,1.1215178966522217
1710962149732113400,28.701113525390625,-1.5232534408569336,-0.5099695324897766,0.3922523260116577
1710962149790022100,28.759022216796875,-1.6188087463378906,-1.453683853149414,1.4844329357147217
1710962149847931000,28.816930908203126,-1.7119197845458984,-0.9078920483589172,1.0417091846466064
1710962149905839600,28.874839599609373,-8.632255554199219,1.0125164985656738,1.9319422245025635
1710962149963748400,28.932748291015624,-8.872594833374023,0.9514817595481873,0.13742852210998535
1710962150021657000,28.990656982421875,-10.296814918518066,0.08738619089126587,-0.05546998977661133
1710962150079565800,29.04856591796875,-6.464515686035156,0.6671679019927979,0.9854261875152588
1710962150137474600,29.106474609375,-5.590887069702148,0.5049087405204773,1.604854702949524
1710962150195383000,29.164383056640624,-2.584726333618164,0.10066424310207367,0.7083343267440796
1710962150253291800,29.222291748046874,-2.818997383117676,0.04211457818746567,4.076756477355957
1710962150311200500,29.280200439453125,2.3016252517700195,-0.9219492673873901,0.5571255683898926
1710962150369109200,29.338109130859376,-0.9294614791870117,-0.9666411280632019,0.7440670132637024
1710962150427018000,29.39601806640625,2.3230161666870117,-0.2564656436443329,0.32519155740737915
1710962150484926700,29.4539267578125,5.868865489959717,-0.27068978548049927,1.9972834587097168
1710962150542835200,29.511835205078125,5.321362018585205,0.8368538618087769,-0.8740704655647278
1710962150600744000,29.569743896484376,2.287508010864258,0.15648716688156128,-1.8130526542663574
1710962150658652700,29.627652587890626,3.8013415336608887,-0.41374602913856506,-1.3447006940841675
1710962150716561400,29.6855615234375,5.542415142059326,-0.4508839547634125,-0.6851223707199097
1710962150774470000,29.743469970703124,4.179380416870117,-0.20312392711639404,0.3922373056411743
1710962150832378600,29.801378662109375,0.8582372665405273,0.32846203446388245,-0.9030431509017944
1710962150890287400,29.859287353515626,4.1820597648620605,-0.39019912481307983,-0.37496086955070496
1710962150948195800,29.91719580078125,-2.2835826873779297,0.29136836528778076,0.33183133602142334
1710962151006104600,29.9751044921875,-2.7944889068603516,-0.6447052955627441,-0.6847442984580994
1710962151064013300,30.033013427734375,2.241377353668213,-0.35802164673805237,-0.7984331250190735
1710962151121921800,30.090921875,-0.05478477478027344,-0.39098042249679565,0.33376359939575195
1710962151179830500,30.14883056640625,0.773127555847168,-0.025198936462402344,-0.1420847773551941
1710962151237739000,30.206739013671875,0.6417827606201172,0.25013837218284607,-0.06930357217788696
1710962151295647700,30.264647705078126,0.775904655456543,0.2580873370170593,-0.04392272233963013
1710962151353556200,30.32255615234375,0.4481019973754883,0.38893866539001465,-0.3369255065917969
1710962151411464700,30.380464599609375,1.5848264694213867,0.6575210094451904,-1.2617316246032715
1710962151469373400,30.43837353515625,2.516753673553467,0.3619963824748993,-0.674015998840332
1710962151527282000,30.496281982421873,2.9396328926086426,0.2057024985551834,-0.5692671537399292
1710962151585190700,30.554190673828124,4.650883674621582,-0.6055284738540649,-0.049453914165496826
1710962151643099100,30.61209912109375,5.617837905883789,-0.713806688785553,0.13821005821228027
1710962151701007600,30.670007568359374,5.903371810913086,-1.7748618125915527,1.031921148300171
1710962151758916400,30.727916259765625,2.964691638946533,-0.06818169355392456,-2.0064892768859863
1710962151816824800,30.785824951171875,0.05330944061279297,0.06620484590530396,0.7805562019348145
1710962151874733300,30.8437333984375,0.15813159942626953,-0.3519013822078705,0.9210545420646667
1710962151932642000,30.90164208984375,-0.860255241394043,0.43725934624671936,-0.023478150367736816
1710962151990550500,30.959550537109376,-5.883788108825684,0.6048672199249268,1.0356333255767822
1710962152048459000,31.017458984375,-1.6780290603637695,0.7878371477127075,0.7018702030181885
1710962152106367500,31.075367431640625,-3.429903030395508,0.6759587526321411,0.88631272315979
1710962152164276000,31.13327587890625,-6.108563423156738,0.8413689732551575,0.6233252286911011
1710962152222184700,31.191184814453123,-6.1477861404418945,-0.22721104323863983,1.3367849588394165
1710962152280093200,31.24909326171875,-5.918919563293457,-0.40166640281677246,-0.469765305519104
1710962152338001700,31.307001708984377,-6.324475288391113,0.2983902096748352,1.965646505355835
1710962152395910100,31.36491015625,-5.764538764953613,0.4925824999809265,-0.04464459419250488
1710962152453818600,31.422818603515626,-5.595952033996582,0.4708223342895508,1.2408236265182495
1710962152511727000,31.48072705078125,-5.067501068115234,-0.10463196039199829,0.6533851623535156
1710962152569635600,31.538635498046876,-3.5184412002563477,0.07987162470817566,-0.20812273025512695
1710962152627544000,31.5965439453125,-4.069554328918457,0.5145795941352844,-0.22911912202835083
1710962152685452500,31.65445263671875,-1.1025915145874023,-0.12304449081420898,5.005813121795654
1710962152743361000,31.712361083984376,-0.4705944061279297,0.3892064094543457,-1.7110631465911865
1710962152801269500,31.77026953125,-0.04338550567626953,-0.8055305480957031,0.23130688071250916
1710962152859178000,31.828177978515626,5.069571018218994,0.3928513824939728,0.6714475154876709
1710962152917086500,31.88608642578125,3.3195905685424805,-0.19351881742477417,0.8009123802185059
1710962152974994700,31.94399462890625,6.520807266235352,-0.779076337814331,0.635916531085968
1710962153032903200,32.00190307617188,6.640082359313965,-0.10361036658287048,-0.15011918544769287
1710962153090811600,32.059811767578125,2.965750217437744,-0.4846856892108917,0.6477375626564026
1710962153148720000,32.11772021484375,2.1481313705444336,-0.9593201875686646,-0.7186574935913086
1710962153206628600,32.175628662109375,7.982168197631836,-0.6928142309188843,-0.33947229385375977
1710962153264537000,32.233537109375,-1.230550765991211,1.4846943616867065,2.1361474990844727
1710962153322445300,32.2914453125,-0.5804939270019531,0.372062087059021,-1.1097140312194824
1710962153380353800,32.34935375976563,1.9461283683776855,0.3827073574066162,0.21137499809265137
1710962153438262300,32.40726220703125,2.0449109077453613,0.5330578088760376,-0.4610251188278198
1710962153496170500,32.46517041015625,-0.9583053588867188,0.3890097737312317,0.7566154599189758
1710962153554079000,32.52307885742187,0.532628059387207,0.16591012477874756,0.3968469500541687
1710962153611987500,32.580987548828126,0.34941673278808594,0.151383638381958,-0.5210340023040771
1710962153669895700,32.63889575195312,-1.0117063522338867,-0.06996111571788788,0.029413342475891113
1710962153727804200,32.69680419921875,1.0609855651855469,0.010746955871582031,-0.5553540587425232
1710962153785712600,32.75471264648438,3.366609573364258,0.14723554253578186,-0.6424316167831421
1710962153843620900,32.812620849609374,4.5116286277771,0.8715859651565552,0.6041036248207092
1710962153901529300,32.870529296875,3.1762728691101074,-0.08146429061889648,-0.25939005613327026
1710962153959437600,32.9284375,3.716792583465576,-0.569328784942627,0.2420279085636139
1710962154017346000,32.986345947265626,5.54353141784668,-0.9523087739944458,0.35783228278160095
1710962154075254300,33.04425415039063,5.2349419593811035,-0.8817388415336609,-0.1716662049293518
1710962154133162500,33.10216259765625,1.6025328636169434,-0.5466995239257812,-0.8239531517028809
1710962154191071000,33.16007104492188,-1.8422460556030273,-0.3856062889099121,0.6335020661354065
1710962154248979200,33.21797924804687,-1.1933727264404297,-0.5496916174888611,2.2452006340026855
1710962154306887700,33.2758876953125,-0.23870182037353516,-0.551087498664856,0.5328848958015442
1710962154364796000,33.3337958984375,-6.507308006286621,-0.15668189525604248,0.34055566787719727
1710962154422704000,33.3917041015625,-9.86719799041748,1.0779249668121338,0.3327781558036804
1710962154480612600,33.44961254882813,-7.775773048400879,1.2337762117385864,-0.8685722351074219
1710962154538520800,33.50752075195312,-6.628568649291992,0.41505008935928345,1.3609745502471924
1710962154596429000,33.565428955078126,-7.699102401733398,1.0949714183807373,-0.8789610862731934
1710962154654337500,33.62333764648437,-8.468528747558594,0.8703208565711975,-0.6570380330085754
1710962154712245800,33.681245849609375,-6.988345146179199,0.45267224311828613,1.2923672199249268
1710962154770154000,33.73915405273438,-2.877073287963867,0.739284098148346,-0.36186498403549194
1710962154828062200,33.79706225585937,-4.490070343017578,0.5163339376449585,1.396181583404541
1710962154885970400,33.854970458984376,-2.9927215576171875,-0.4653487205505371,1.768390417098999
1710962154943879000,33.91287890625,1.5557260513305664,-0.7470632791519165,0.3109659254550934
1710962155001787100,33.970787109375,3.595722198486328,-0.7790031433105469,0.4111437499523163
1710962155059695400,34.0286953125,4.604743957519531,-2.8435587882995605,0.014121711254119873
1710962155117603600,34.086603515625,6.952399253845215,-2.3860902786254883,-2.323235034942627
1710962155175511800,34.14451171875,6.356898307800293,-3.061279773712158,-0.567996084690094
1710962155233420000,34.202419921875,6.787014007568359,-0.8464621305465698,-1.9664411544799805
1710962155291328300,34.26032836914062,3.073324680328369,0.9935857057571411,0.8512657880783081
1710962155349236500,34.318236572265626,-1.8690357208251953,0.5820002555847168,-0.6298303604125977
1710962155407144700,34.37614477539063,2.0233092308044434,0.9631842374801636,-1.642495036125183
1710962155465053000,34.43405297851562,-0.9968700408935547,1.6869757175445557,0.7267618179321289
1710962155522961200,34.491961181640626,-1.6212482452392578,0.41913604736328125,0.7875860929489136
1710962155580869400,34.54986938476563,1.917203426361084,-0.2529897689819336,-0.5944035053253174
1710962155638777600,34.607777587890624,1.100398063659668,0.010024070739746094,-0.6837276816368103
1710962155696685800,34.665685791015626,0.6126251220703125,0.19743359088897705,0.45601600408554077
1710962155754593800,34.72359375,1.1419925689697266,-0.04553556442260742,-0.027737975120544434
1710962155812502000,34.781501953125,3.056114673614502,0.03864574432373047,-0.3992995023727417
1710962155870410200,34.83941015625,2.9192800521850586,0.0668332576751709,-0.06419336795806885
1710962155928318500,34.897318359375,3.910160541534424,0.0947185754776001,-0.22911083698272705
1710962155986226700,34.955226806640624,4.327084064483643,0.5596733093261719,-0.5192147493362427
1710962156044135000,35.01313500976563,6.756413459777832,0.2224298119544983,-0.8559061288833618
1710962156102043000,35.07104296875,5.116532802581787,-0.7419544458389282,0.9663560390472412
1710962156159951000,35.128951171875,2.6498351097106934,-1.760293960571289,0.9294825196266174
1710962156217859300,35.186859375,6.139616012573242,-2.720770835876465,-0.43058860301971436
1710962156275767300,35.24476733398438,1.9634346961975098,-1.1888644695281982,-0.031914353370666504
1710962156333675500,35.30267553710937,-4.051512718200684,0.9599704742431641,2.513946294784546
1710962156391583700,35.360583740234375,-5.903379440307617,0.697514533996582,1.6736667156219482
1710962156449491700,35.41849169921875,-6.097576141357422,0.3569355607032776,1.7095320224761963
1710962156507400000,35.47639990234375,-6.927980422973633,-0.20075657963752747,1.715802550315857
1710962156565308200,35.53430810546875,-6.051078796386719,0.5716330409049988,-0.012820005416870117
1710962156623216000,35.592216064453126,-7.977495193481445,0.2883542776107788,0.5561074018478394
1710962156681124400,35.65012426757813,-9.217095375061035,0.5623817443847656,0.4171450138092041
1710962156739032300,35.7080322265625,-8.211524963378906,1.278051495552063,1.2525689601898193
1710962156796940500,35.7659404296875,-6.698677062988281,0.9176715016365051,1.2156462669372559
1710962156854848500,35.8238486328125,-4.915143966674805,0.2706766724586487,-0.0012083053588867188
1710962156912756700,35.8817568359375,-4.364076614379883,-0.12697438895702362,0.5825802087783813
1710962156970664700,35.939664794921875,-3.483248710632324,0.042999207973480225,0.18411898612976074
1710962157028572700,35.99757275390625,-3.496196746826172,-0.4970182776451111,1.5566959381103516
1710962157086481000,36.05548095703125,-1.539957046508789,-0.7965397238731384,0.5055943131446838
1710962157144388900,36.11338891601562,0.9283103942871094,-1.4353134632110596,0.9695104360580444
1710962157202296800,36.171296875,2.9448304176330566,-1.7168691158294678,1.217234492301941
1710962157260205000,36.229205078125,5.192196846008301,-2.382673501968384,0.9442859888076782
1710962157318113000,36.28711303710938,8.048807144165039,-2.4667599201202393,0.08119678497314453
1710962157376021000,36.34502099609375,5.470909595489502,-1.1761807203292847,2.880760908126831
1710962157433929200,36.40292919921875,8.002045631408691,-0.9938112497329712,2.1171936988830566
1710962157491837200,36.46083715820313,3.787257671356201,-0.7249020338058472,1.0801335573196411
1710962157549745200,36.5187451171875,4.746262073516846,-0.332865834236145,-0.331875205039978
1710962157607653000,36.57665307617187,3.2790093421936035,0.030704975128173828,0.9329601526260376
1710962157665561300,36.634561279296875,3.3679051399230957,-0.5862619876861572,-0.11670935153961182
1710962157723469300,36.69246923828125,2.8145928382873535,-0.5555815696716309,-0.43926405906677246
1710962157781377300,36.75037719726563,4.9437737464904785,-1.0980535745620728,0.2481945902109146
1710962157839285200,36.80828515625,4.593688488006592,-0.6074857711791992,0.8608568906784058
1710962157897193500,36.866193359375,3.5697884559631348,-0.9655285477638245,-0.5877873301506042
1710962157955101400,36.92410131835938,3.7511191368103027,-1.5254241228103638,1.8958085775375366
1710962158013009400,36.98200952148437,-1.817047119140625,0.011483609676361084,-0.8603702783584595
1710962158070917400,37.03991748046875,-1.4662599563598633,-0.4457639455795288,1.4380030632019043
1710962158128825300,37.097825439453125,-2.794142723083496,1.0370192527770996,-0.38175129890441895
1710962158186733300,37.1557333984375,-1.290212631225586,2.1769614219665527,0.7550432682037354
1710962158244641300,37.21364135742188,-0.3117856979370117,0.25129494071006775,-0.3702878952026367
1710962158302549200,37.27154931640625,-0.20324420928955078,1.4606881141662598,-0.5145033597946167
1710962158360457200,37.329457275390624,-2.4664926528930664,0.6150927543640137,-0.7808220386505127
1710962158418365200,37.387365234375,-3.7896642684936523,1.0243773460388184,-0.6073957681655884
1710962158476273200,37.44527319335938,-5.903714179992676,0.5157158374786377,-0.7880475521087646
1710962158534181000,37.50318115234375,-5.7578840255737305,0.8900597095489502,1.501184344291687
1710962158592089000,37.56108911132812,-4.179754257202148,-1.5186727046966553,0.6523523330688477
1710962158649997000,37.6189970703125,-7.674247741699219,1.2518633604049683,-0.4465978145599365
1710962158707905000,37.676905029296876,-5.858332633972168,0.5744025111198425,0.8917546272277832
1710962158765812700,37.734812744140626,-6.852027893066406,1.5631248950958252,1.0577856302261353
1710962158823720700,37.792720703125,-4.095592498779297,-0.4666884243488312,0.23263061046600342
1710962158881628700,37.85062866210937,-2.9774703979492188,-0.6078830361366272,-0.9723638296127319
1710962158939536600,37.90853662109375,1.593729019165039,-2.3370258808135986,-0.22145283222198486
1710962158997444600,37.966444580078125,-0.4484682083129883,-0.5513946413993835,-1.096077561378479
1710962159055352300,38.024352294921876,1.6516742706298828,-1.1423548460006714,-0.3780592083930969
1710962159113260300,38.08226025390625,1.030862808227539,0.25904297828674316,0.597412109375
1710962159171168300,38.14016821289062,2.6032724380493164,-1.3450233936309814,1.435233473777771
1710962159229076200,38.198076171875,1.5723209381103516,-1.0238945484161377,1.415730357170105
1710962159286984000,38.25598388671875,2.292117118835449,-1.1844003200531006,-0.5754305124282837
1710962159344892000,38.313891845703125,3.228822708129883,-0.7846009731292725,-0.1381981372833252
1710962159402799900,38.3717998046875,4.635143756866455,-1.0226484537124634,-0.2837674617767334
1710962159460707600,38.42970751953125,4.239804267883301,-0.18181443214416504,-0.7703113555908203
1710962159518615600,38.48761547851562,3.8236680030822754,-0.0851755142211914,-0.2329500913619995
1710962159576523500,38.5455234375,2.626720428466797,0.15923833847045898,-0.7995073199272156
1710962159634431200,38.60343115234375,0.8226995468139648,0.4418754577636719,-0.5760300755500793
1710962159692339200,38.661339111328125,-0.3735542297363281,0.5183534622192383,-0.283166766166687
1710962159750247000,38.719246826171876,0.7384872436523438,0.02126908302307129,0.3619081974029541
1710962159808155000,38.77715478515625,0.8931293487548828,0.17893648147583008,-0.07923448085784912
1710962159866062600,38.8350625,0.7366847991943359,0.507277250289917,-0.6774989366531372
1710962159923970600,38.89297045898437,2.4771881103515625,0.18352818489074707,-0.5799915790557861
1710962159981878300,38.95087817382812,3.6879963874816895,0.441426157951355,-0.5484678745269775
1710962160039786200,39.0087861328125,3.92854642868042,-0.0970458984375,-1.0566939115524292
1710962160097694000,39.06669384765625,3.764669418334961,-0.5564607977867126,-1.7168970108032227
1710962160155601700,39.1246015625,4.310714244842529,-2.1124002933502197,0.7917239665985107
1710962160213509600,39.18250952148438,1.6918177604675293,0.07525157928466797,-0.5293740034103394
1710962160271417300,39.24041723632813,2.967520236968994,-1.4128143787384033,0.5796051025390625
1710962160329325300,39.2983251953125,0.34662628173828125,-0.1902669370174408,-0.5440506935119629
1710962160387233000,39.35623291015625,-1.6302204132080078,-0.781791090965271,-0.47789621353149414
1710962160445140700,39.414140625,-3.042231559753418,0.256653755903244,-0.17812442779541016
1710962160503048700,39.472048583984375,-3.4000253677368164,0.6632992625236511,0.07975602149963379
1710962160560956400,39.529956298828125,-3.1147947311401367,-1.8352192640304565,0.8349311351776123
1710962160618864000,39.587864013671876,-5.720608711242676,1.5106979608535767,0.9415501356124878
1710962160676772000,39.64577221679688,-3.1574792861938477,-0.5534406900405884,0.3518131971359253
1710962160734679800,39.7036796875,-5.645839691162109,0.31525909900665283,0.59633469581604
1710962160792587500,39.76158740234375,-6.069158554077148,0.5398247241973877,0.892659068107605
1710962160850495200,39.8194951171875,-6.156659126281738,1.4910449981689453,0.4617372751235962
1710962160908403200,39.8774033203125,-5.768525123596191,1.0413050651550293,0.761563777923584
1710962160966311000,39.935310791015624,-4.63199520111084,1.309485673904419,0.7589701414108276
1710962161024218600,39.993218505859375,-2.746556282043457,0.488311767578125,0.49969708919525146
1710962161082126300,40.051126220703125,-0.9675827026367188,0.387084424495697,-1.1160439252853394
1710962161140034000,40.109033935546876,-1.1351556777954102,-0.10278040170669556,0.9273531436920166
1710962161197941800,40.166941650390626,0.4826850891113281,-2.05610728263855,-0.7199769616127014
1710962161255849500,40.22484936523438,2.6999030113220215,-1.0029410123825073,-1.2035231590270996
1710962161313757200,40.28275708007813,2.924482822418213,-0.9842604398727417,-1.3099558353424072
1710962161371665000,40.34066479492188,2.1990180015563965,-0.10937357693910599,-1.0309340953826904
1710962161429572600,40.39857250976563,2.939633369445801,-0.6377905011177063,0.6309725046157837
1710962161487480300,40.45648022460937,0.5608997344970703,-0.29806697368621826,0.2601001262664795
1710962161545388000,40.51438793945312,1.9091835021972656,-0.8094503879547119,-0.08752179145812988
1710962161603295700,40.57229565429687,1.096022605895996,-0.03390967845916748,0.11088216304779053
1710962161661203500,40.630203369140624,3.22739315032959,0.16025185585021973,-0.5490597486495972
1710962161719111200,40.688111083984374,4.7287373542785645,-0.011565685272216797,-0.05262553691864014
1710962161777019000,40.746018798828125,2.0359158515930176,1.2657650709152222,-0.02727806568145752
1710962161834926600,40.803926513671875,1.4979867935180664,0.46074044704437256,-0.30229806900024414
1710962161892834300,40.861834228515626,0.3074045181274414,0.05380880832672119,-0.5462384223937988
1710962161950742000,40.91974194335938,0.1499004364013672,0.15916037559509277,0.09009850025177002
1710962162008649700,40.97764965820313,0.2541770935058594,-0.01583874225616455,0.1408606767654419
1710962162066557400,41.03555737304688,0.076690673828125,0.3437511920928955,0.029199957847595215
1710962162124465200,41.09346508789063,1.005335807800293,0.09511685371398926,0.014129281044006348
1710962162182372900,41.15137280273437,1.4713764190673828,0.356137216091156,-0.13884377479553223
1710962162240280300,41.2092802734375,2.5076441764831543,0.10475766658782959,-0.25621020793914795
1710962162298188000,41.26718798828125,2.6173348426818848,0.8145131468772888,-0.5618215799331665
1710962162356095700,41.325095703125,2.7178397178649902,0.6545969247817993,-0.4288485646247864
1710962162414003500,41.38300341796875,3.7876625061035156,-0.45587101578712463,-0.7441335916519165
1710962162471911200,41.4409111328125,3.8283438682556152,-0.2641901671886444,1.0184330940246582
1710962162529818600,41.49881860351562,3.2893824577331543,0.19882772862911224,0.1501556634902954
1710962162587726300,41.556726318359374,3.6817030906677246,-0.003252282738685608,-0.6515482664108276
1710962162645634000,41.614634033203124,2.402822971343994,-0.5226399898529053,-0.5379904508590698
1710962162703541500,41.67254150390625,-0.17702674865722656,-0.560517430305481,0.3868345022201538
1710962162761449200,41.73044921875,-3.1233835220336914,-0.9108130931854248,-0.017431139945983887
1710962162819357000,41.78835693359375,-5.2675323486328125,0.597354531288147,0.3942563533782959
1710962162877264400,41.846264404296875,-3.938736915588379,-0.8657833933830261,1.5531502962112427
1710962162935172000,41.904172119140625,-5.687310218811035,1.1768288612365723,0.48447906970977783
1710962162993079800,41.962079833984376,-4.718111991882324,0.24777159094810486,0.47862619161605835
1710962163050987300,42.0199873046875,-5.150662422180176,0.6243367791175842,0.002423405647277832
1710962163108895000,42.07789501953125,-5.293761253356934,0.08935615420341492,0.26174575090408325
1710962163166802700,42.135802734375,-5.326947212219238,-0.35570210218429565,1.2157038450241089
1710962163224710100,42.193710205078126,-6.131552696228027,0.16781769692897797,0.5829092264175415
1710962163282617900,42.25161791992188,-4.782903671264648,-0.08580601215362549,0.37875187397003174
1710962163340525300,42.309525390625,-3.8499107360839844,0.4839235842227936,0.10907626152038574
1710962163398433000,42.36743310546875,-2.684756278991699,1.238999843597412,-0.34250158071517944
1710962163456340500,42.42534057617188,0.06129169464111328,-0.38092100620269775,-1.6485220193862915
1710962163514248200,42.48324829101563,2.5950570106506348,-1.8625208139419556,-0.3260130286216736
1710962163572156000,42.54115600585938,3.52426815032959,-0.533954381942749,-0.18715274333953857
1710962163630063400,42.5990634765625,1.8473186492919922,0.08198133111000061,-1.0618274211883545
1710962163687971000,42.65697119140625,3.2340869903564453,-0.31590795516967773,-0.13627803325653076
1710962163745880300,42.71488037109375,3.2346997261047363,-0.9285507798194885,-1.2481762170791626
1710962163803787800,42.77278784179688,2.192992687225342,0.7733925580978394,0.33624446392059326
1710962163861695200,42.8306953125,2.8156933784484863,-0.4791622757911682,0.32264596223831177
1710962163919603000,42.88860302734375,1.7784528732299805,0.20975656807422638,-0.25290271639823914
1710962163977510400,42.94651049804688,2.2117362022399902,0.9467202425003052,0.713158905506134
1710962164035418000,43.00441821289063,0.9320363998413086,0.6991384029388428,-0.6378403902053833
1710962164093325600,43.06232568359375,1.0953073501586914,0.7065219879150391,0.44768649339675903
1710962164151233300,43.1202333984375,0.9611806869506836,0.5781250596046448,-0.108205646276474
1710962164209140700,43.178140625,1.1753978729248047,0.04201740026473999,0.11629083007574081
1710962164267048200,43.236048095703126,1.150773048400879,-0.10801121592521667,0.2708829343318939
1710962164324956000,43.293955810546876,0.9020061492919922,-0.025154024362564087,0.28230494260787964
1710962164382863400,43.35186328125,0.46594905853271484,0.37779176235198975,0.10375858843326569
1710962164440770800,43.409770751953126,1.0104236602783203,0.22314417362213135,0.3867112398147583
1710962164498678500,43.467678466796876,2.2373108863830566,0.5630862712860107,0.08313857764005661
1710962164556586000,43.5255859375,3.238607406616211,0.25402143597602844,-0.1227884441614151
1710962164614493400,43.583493408203125,3.254758358001709,0.19028913974761963,-0.9441940188407898
1710962164672401200,43.641401123046876,3.5061211585998535,0.7797344326972961,0.5426645874977112
1710962164730308600,43.69930859375,4.406978130340576,0.5741032958030701,0.49631476402282715
1710962164788216000,43.757216064453125,3.996931552886963,-0.387024849653244,0.8314857482910156
1710962164846123500,43.81512353515625,0.011363029479980469,-0.7988872528076172,-0.09951600432395935
1710962164904031000,43.873031005859374,-0.17824554443359375,-0.22438761591911316,0.3772870898246765
1710962164961938700,43.930938720703125,-1.45849609375,-0.7001704573631287,0.015341460704803467
1710962165019846100,43.98884619140625,-1.4165515899658203,-1.5829887390136719,0.533655047416687
1710962165077753600,44.046753662109374,-3.477415084838867,-0.8999565243721008,0.38901275396347046
1710962165135661000,44.1046611328125,-4.786862373352051,1.0027410984039307,-1.3469411134719849
1710962165193568500,44.16256860351562,-5.044724464416504,0.7041910886764526,0.42599278688430786
1710962165251476000,44.22047607421875,-4.46181583404541,0.6374600529670715,-0.4708607494831085
1710962165309383400,44.27838354492187,-4.887022972106934,1.4101223945617676,-0.309783011674881
1710962165367291100,44.336291015625,-5.058802604675293,1.0369362831115723,0.39692258834838867
1710962165425198600,44.39419848632812,-6.179365158081055,1.2405177354812622,0.4429951310157776
1710962165483106000,44.45210595703125,-5.822930335998535,1.3446017503738403,-0.0696554183959961
1710962165541013500,44.51001342773438,-4.303628921508789,0.15411843359470367,-0.10972447693347931
1710962165598921000,44.5679208984375,-3.262838363647461,-0.7322703003883362,0.31691741943359375
1710962165656828400,44.62582836914063,-0.9621810913085938,-1.1895294189453125,-0.5217330455780029
1710962165714735900,44.68373583984375,-1.2276010513305664,0.45723390579223633,-0.3521921932697296
1710962165772643300,44.74164331054688,0.7506351470947266,-1.7564738988876343,-1.1289269924163818
1710962165830550800,44.79955078125,3.240842819213867,-1.2887537479400635,-0.5346011519432068
1710962165888458200,44.857458251953126,3.84848690032959,-1.045573353767395,-1.1848114728927612
1710962165946365700,44.91536572265625,2.636997699737549,0.49785614013671875,-0.3032136857509613
1710962166004273200,44.973273193359375,1.2601404190063477,0.9621886610984802,0.9067068099975586
1710962166062180600,45.0311806640625,2.0346670150756836,0.1981750726699829,0.08296096324920654
1710962166120088000,45.089088134765625,3.5922694206237793,0.3465328812599182,-0.5078065991401672
1710962166177995500,45.14699560546875,4.652717590332031,-0.6670843362808228,0.24525296688079834
1710962166235903000,45.204903076171874,3.0744576454162598,0.6111629605293274,-0.04869300127029419
1710962166293810200,45.26281005859375,2.1431493759155273,-0.02535688877105713,-0.2676643133163452
1710962166351717600,45.32071752929688,0.9349260330200195,0.13498449325561523,0.15172553062438965
1710962166409625000,45.378625,1.0758686065673828,-0.09295976161956787,0.49156254529953003
1710962166467532500,45.43653247070313,0.31760311126708984,0.483523964881897,0.06039673089981079
1710962166525440000,45.49443994140625,0.25954437255859375,0.07278859615325928,0.2848972678184509
1710962166583347500,45.55234741210938,-0.301055908203125,0.34626084566116333,0.141213059425354
1710962166641255000,45.6102548828125,0.3063020706176758,0.37672680616378784,0.12453526258468628
1710962166699162000,45.668162109375,0.6883344650268555,0.2953474521636963,-0.5201253890991211
1710962166757069600,45.726069580078125,1.9126687049865723,0.19013601541519165,-0.026290535926818848
1710962166814977000,45.78397705078125,2.9620203971862793,0.49241870641708374,-0.2120874524116516
1710962166872884500,45.841884521484374,3.5709385871887207,-0.26335424184799194,-0.41509661078453064
1710962166930792000,45.8997919921875,3.6849498748779297,0.9209460020065308,-0.0621030330657959
1710962166988699100,45.95769921875,4.245543956756592,0.3684288263320923,0.8447114825248718
1710962167046606600,46.01560668945312,2.9187779426574707,0.09359197318553925,-0.12546128034591675
1710962167104514000,46.07351416015625,2.0471911430358887,-0.14187990128993988,0.2102838158607483
1710962167162421500,46.13142138671875,1.0080232620239258,0.26270538568496704,-0.3849061131477356
1710962167220328700,46.18932861328125,0.15682220458984375,-0.6408168077468872,-0.295739084482193
1710962167278236200,46.247236083984376,-0.8209600448608398,-1.5760750770568848,0.08806782960891724
1710962167336143600,46.3051435546875,-2.3139772415161133,-0.9125877618789673,-0.6727055311203003
1710962167394050800,46.36305078125,-3.855820655822754,1.0567491054534912,-0.7473509907722473
1710962167451958300,46.420958251953124,-4.368027687072754,0.6769906282424927,0.44815313816070557
1710962167509865700,46.47886572265625,-4.792105674743652,0.1833374947309494,0.133588969707489
1710962167567773000,46.53677294921875,-2.9435901641845703,-0.2261512726545334,0.8664066791534424
1710962167625680400,46.59468041992187,-3.0131282806396484,0.178545281291008,-0.48043811321258545
1710962167683587600,46.65258764648438,-2.570467948913574,-0.5457127690315247,0.34129589796066284
1710962167741495000,46.7104951171875,-6.135040283203125,0.9963736534118652,-0.39019790291786194
1710962167799402500,46.76840258789063,-5.15568733215332,0.4143598675727844,0.18466009199619293
1710962167857309700,46.826309814453126,-5.04033088684082,1.0017154216766357,-0.07927864789962769
1710962167915217000,46.884216796875,-4.749935150146484,-0.16841384768486023,-0.7300443649291992
1710962167973124400,46.94212426757812,-5.215760231018066,1.2872133255004883,-0.7875120043754578
1710962168031031800,47.00003173828125,-0.6638803482055664,-1.205383539199829,0.8581088185310364
1710962168088939000,47.05793896484375,-0.8227806091308594,-0.0004750490188598633,-0.5099149346351624
1710962168146846500,47.11584643554688,-0.9380130767822266,0.6244486570358276,-0.705865740776062
1710962168204753700,47.17375366210938,1.0966672897338867,-0.19694063067436218,-0.6357391476631165
1710962168262661000,47.2316611328125,3.5997543334960938,-0.6647645235061646,0.06354671716690063
1710962168320568300,47.289568359375,3.8431687355041504,-0.34061911702156067,-0.5848320722579956
1710962168378475500,47.3474755859375,3.036202907562256,0.813453197479248,0.49433431029319763
1710962168436383000,47.40538305664062,2.4356260299682617,-0.326589971780777,-1.0546784400939941
1710962168494290200,47.46329028320312,1.8036470413208008,0.23452478647232056,1.0713119506835938
1710962168552197600,47.52119775390625,0.47544384002685547,-0.43107154965400696,-0.637238621711731
1710962168610104800,47.57910473632813,2.6485729217529297,0.06373798847198486,1.2828620672225952
1710962168668012300,47.63701220703125,1.8955373764038086,0.13889217376708984,0.14197313785552979
1710962168725919500,47.69491943359375,2.8643136024475098,-0.5850586891174316,0.7016913890838623
1710962168783826700,47.75282666015625,2.93123722076416,-0.09916692972183228,0.15452805161476135
1710962168841734000,47.81073388671875,2.6249308586120605,-0.30970990657806396,-0.14251619577407837
1710962168899641300,47.86864135742187,2.220092296600342,-0.3829469680786133,-0.2319861352443695
1710962168957548500,47.92654858398438,0.7049684524536133,-0.11119967699050903,-0.24442027509212494
1710962169015456000,47.9844560546875,-0.7501420974731445,0.04013717174530029,-0.022797435522079468
1710962169073363200,48.04236328125,-1.086038589477539,0.4247589111328125,-0.039812684059143066
1710962169131270400,48.1002705078125,-0.42583274841308594,0.6859904527664185,-0.26958632469177246
1710962169189177600,48.15817749023437,0.7674245834350586,0.782711386680603,0.0695028007030487
1710962169247085000,48.2160849609375,1.1856136322021484,1.1059200763702393,0.2864035964012146
1710962169304992300,48.2739921875,2.0970406532287598,0.5597226023674011,0.011386483907699585
1710962169362899500,48.3318994140625,2.939579963684082,0.14941006898880005,-0.20488494634628296
1710962169420806700,48.389806640625,3.224292278289795,0.4244568347930908,0.1903304159641266
1710962169478714000,48.447714111328125,3.684624195098877,-0.33086806535720825,0.26260876655578613
1710962169536621300,48.505621337890624,3.879636287689209,-0.6927067041397095,0.7827364206314087
1710962169594528500,48.56352856445312,3.6835198402404785,-0.9943556189537048,-0.1348845511674881
1710962169652435700,48.62143579101563,3.3397350311279297,-0.023134589195251465,0.2594802677631378
1710962169710343000,48.67934301757813,1.5754637718200684,-1.1596510410308838,-0.3932461738586426
1710962169768250400,48.73725048828125,0.559605598449707,-2.296304941177368,1.027837872505188
1710962169826157600,48.795157470703124,-2.584056854248047,-1.38711416721344,-0.2266608476638794
1710962169884064800,48.85306469726562,-2.5102319717407227,-0.011043921113014221,0.17141938209533691
1710962169941972000,48.91097192382812,-3.621365547180176,-0.27349644899368286,0.6686117053031921
1710962169999879200,48.96887915039063,-5.174130439758301,0.9570189714431763,0.15446245670318604
1710962170057786400,49.026786376953126,-4.002658843994141,0.43652060627937317,-0.48341843485832214
1710962170115693600,49.084693603515625,-4.905919075012207,0.5759904384613037,-0.09513616561889648
1710962170173600800,49.14260083007812,-6.967072486877441,1.6774847507476807,-0.08680140972137451
1710962170231508000,49.20050805664062,-6.25590705871582,0.988023042678833,-0.23292037844657898
1710962170289415200,49.25841528320313,-5.246736526489258,0.500946044921875,0.29058223962783813
1710962170347322400,49.316322265625,-4.887272834777832,0.6407930254936218,-0.3917323350906372
1710962170405229600,49.3742294921875,-3.467923164367676,-0.18352095782756805,0.07353043556213379
1710962170463137000,49.432136962890624,-3.262939453125,0.7305387854576111,0.031099677085876465
1710962170521044200,49.49004418945312,-2.813473701477051,0.7619766592979431,-0.19231992959976196
1710962170578951200,49.547951171875,-1.7096748352050781,0.10207545757293701,0.5120402574539185
1710962170636858600,49.60585864257813,0.3054008483886719,-0.46489161252975464,-0.2884182333946228
1710962170694765800,49.663765869140626,2.3498096466064453,-0.40912872552871704,-0.9647809863090515
1710962170752673000,49.721673095703125,1.7427310943603516,0.6697977185249329,0.0944075882434845
1710962170810580000,49.779580078125,3.4295191764831543,0.8943991661071777,-1.5028117895126343
1710962170868487200,49.83748706054688,5.30610466003418,0.7498868703842163,-0.5265787839889526
1710962170926394400,49.895394287109376,2.724301815032959,2.8124217987060547,-1.2505168914794922
1710962170984301600,49.953301513671875,0.24904155731201172,2.069857597351074,-1.5150794982910156
1710962171042208800,50.01120874023437,-0.06756305694580078,0.40828847885131836,0.5229921936988831
1710962171100116000,50.06911596679687,0.10956287384033203,-0.7222756147384644,-0.5139370560646057
1710962171158023200,50.12702319335938,1.3123712539672852,-0.06708977371454239,2.0647239685058594
1710962171215930400,50.184930419921876,0.7161769866943359,1.6514915227890015,1.7957179546356201
1710962171273837600,50.242837646484375,0.5830307006835938,-2.058698892593384,0.4677560031414032
1710962171331744800,50.300744873046874,3.205127239227295,-0.5521599650382996,1.4606797695159912
1710962171389652000,50.35865185546875,2.574622631072998,-0.45268380641937256,0.8964004516601562
1710962171447559200,50.41655908203125,0.052145957946777344,-0.2434348165988922,-0.3130851984024048
1710962171505466000,50.474466064453125,1.206869125366211,-0.5410354137420654,-0.9733230471611023
1710962171563373300,50.532373291015624,2.7269272804260254,-0.6483198404312134,0.5635273456573486
1710962171621280500,50.59028051757812,0.31481266021728516,-0.22771844267845154,-0.8221631050109863
1710962171679187700,50.64818774414063,0.7161703109741211,0.38794174790382385,-0.1749565601348877
1710962171737095000,50.70609497070313,1.5884122848510742,0.09001201391220093,-0.5830481648445129
1710962171795001900,50.764001953125,2.368041515350342,0.17952880263328552,-0.2397870421409607
1710962171852909000,50.82190893554687,3.109165668487549,-0.2577561140060425,-0.8949297666549683
1710962171910816300,50.87981616210938,3.8183484077453613,-0.21348050236701965,-1.7854831218719482
1710962171968723500,50.93772338867188,4.1053996086120605,-0.41739386320114136,-0.9234150052070618
1710962172026630700,50.995630615234376,4.16526985168457,-0.34721213579177856,-1.7410168647766113
1710962172084537600,51.05353759765625,3.9456162452697754,-0.18480604887008667,-0.9875360727310181
1710962172142444800,51.11144482421875,2.334379196166992,0.6373323202133179,0.8693991899490356
1710962172200352000,51.16935205078125,-0.4711627960205078,0.5873391628265381,1.3343827724456787
1710962172258259200,51.22725927734375,-0.9117946624755859,-0.48198527097702026,2.5341243743896484
1710962172316166400,51.28516650390625,-0.8184223175048828,-0.41792821884155273,0.3473351299762726
1710962172374073300,51.3430732421875,-2.9179344177246094,0.5106420516967773,-0.22976821660995483
1710962172431980500,51.40098046875,-5.583230972290039,-0.32207751274108887,0.5679867267608643
1710962172489887700,51.4588876953125,-7.223712921142578,-0.45831871032714844,0.5604524612426758
1710962172547795000,51.516794921875,-8.991188049316406,-1.8087973594665527,1.5756498575210571
1710962172605702000,51.57470190429687,-4.2024383544921875,0.1518927812576294,-0.03376424312591553
1710962172663609000,51.63260913085937,-8.823262214660645,-0.7262164354324341,1.2769038677215576
1710962172721516300,51.69051635742188,-7.323575973510742,-0.47762763500213623,-0.8491043448448181
1710962172779423500,51.748423583984376,-5.745163917541504,-0.8422419428825378,0.1883864402770996
1710962172837330400,51.80633032226562,-1.5560235977172852,0.045300066471099854,1.1989736557006836
1710962172895237600,51.86423754882812,-1.7684364318847656,-0.16217710077762604,-0.44504642486572266
1710962172953144800,51.92214477539063,-2.111438751220703,-0.10695397108793259,0.5164496898651123
1710962173011052000,51.980052001953126,0.59246826171875,-0.2811361849308014,0.9186340570449829
1710962173068959000,52.037958984375,2.3900208473205566,-0.22433000802993774,-0.23375290632247925
1710962173126866200,52.0958662109375,1.5216331481933594,-0.6382704377174377,0.027898728847503662
1710962173184773400,52.1537734375,3.0976204872131348,-0.4951842427253723,-0.2995883822441101
1710962173242680600,52.2116806640625,4.210329532623291,0.11208415031433105,0.42082101106643677
1710962173300587500,52.26958740234375,5.199163436889648,-0.21282964944839478,-0.7054430246353149
1710962173358494700,52.32749462890625,5.256808757781982,-0.9779895544052124,-0.3803655505180359
1710962173416402000,52.38540185546875,4.947301387786865,0.1472824364900589,-2.768097400665283
1710962173474309000,52.44330908203125,-1.3334789276123047,0.6161490082740784,-2.1681947708129883
1710962173532216000,52.501216064453125,-0.08946037292480469,-0.8067975640296936,-0.7201769351959229
1710962173590123300,52.559123291015624,3.826935291290283,0.8338164687156677,-0.09833948314189911
1710962173648030500,52.61703051757812,-0.9571475982666016,0.3406919240951538,1.2398695945739746
1710962173705937700,52.67493774414063,-0.43486499786376953,0.10259580612182617,0.010098814964294434
1710962173763844600,52.7328447265625,1.6799659729003906,0.1308538317680359,1.1562870740890503
1710962173821751800,52.790751708984374,0.1345958709716797,0.18166780471801758,-0.0039460137486457825
1710962173879659000,52.84865893554687,1.439676284790039,0.2485329508781433,-0.6235684156417847
1710962173937566000,52.90656591796875,1.0391111373901367,0.3686346411705017,0.7090119123458862
1710962173995473200,52.96447314453125,4.175980091094971,0.05568975210189819,-0.8640766739845276
1710962174053380400,53.02238037109375,4.702366828918457,0.5876353979110718,-0.8638304471969604
1710962174111287600,53.08028759765625,4.229303359985352,0.7800325751304626,-0.5864227414131165
1710962174169194500,53.13819458007813,4.1314873695373535,0.2965056300163269,0.35901927947998047
1710962174227101700,53.19610180664063,5.179610729217529,0.05167806148529053,-0.3677104711532593
1710962174285009000,53.2540087890625,3.5591444969177246,0.6271625757217407,0.04002082347869873
1710962174342915800,53.31191577148437,0.7428169250488281,-0.061703771352767944,-0.6024841070175171
1710962174400823000,53.36982299804688,-2.6618385314941406,-0.48945075273513794,-0.6844515204429626
1710962174458730200,53.42773022460938,-2.7144174575805664,-0.3976556658744812,0.33730247616767883
1710962174516637400,53.485637451171876,-3.7066593170166016,-0.357086718082428,2.119051456451416
1710962174574544400,53.54354443359375,-4.165122985839844,-0.9688632488250732,0.6283400058746338
1710962174632451600,53.60145166015625,-4.272666931152344,-0.3754761815071106,0.3443582057952881
1710962174690358800,53.65935888671875,-6.098545074462891,0.1842147409915924,1.3323419094085693
1710962174748265700,53.717265625,-8.312093734741211,0.049744147807359695,1.1684789657592773
1710962174806173000,53.7751728515625,-9.195981979370117,-0.13395340740680695,-0.6261925101280212
1710962174864080100,53.833080078125,-8.826275825500488,-0.03644600510597229,0.8371351957321167
1710962174921987000,53.89098706054688,-7.629220962524414,0.4219880998134613,-0.14298886060714722
1710962174979894300,53.948894287109376,-2.714715003967285,0.1395876705646515,0.3242970108985901
1710962175037801500,54.006801513671874,-1.2358293533325195,0.7325674295425415,0.7934503555297852
1710962175095708400,54.06470849609375,-2.6646223068237305,0.02125263772904873,2.5805373191833496
1710962175153615600,54.12261572265625,1.441976547241211,-0.12569358944892883,0.3296722173690796
1710962175211522800,54.180522705078126,2.927344799041748,-0.6180934309959412,-1.254038691520691
1710962175269429800,54.2384296875,1.7586030960083008,0.49860721826553345,-0.9114766716957092
1710962175327337000,54.2963369140625,3.8502111434936523,-1.3677607774734497,-3.0071921348571777
1710962175385244200,54.354244140625,6.475757598876953,-1.48075532913208,-1.6810545921325684
1710962175443151400,54.4121513671875,6.7719831466674805,0.5128194093704224,-1.8575904369354248
1710962175501058300,54.470058349609374,5.832622528076172,0.5116232633590698,0.26308363676071167
1710962175558965500,54.52796557617187,-0.21608638763427734,0.3695887327194214,0.29840970039367676
1710962175616872400,54.58587255859375,3.6280922889709473,1.1637651920318604,-0.8420104384422302
1710962175674779600,54.643779541015626,-0.7299413681030273,1.1681880950927734,1.2790158987045288
1710962175732686800,54.701686767578124,0.6374826431274414,0.3230745494365692,-0.4250473380088806
1710962175790593800,54.75959375,3.0275001525878906,-0.08715707063674927,0.2963087856769562
1710962175848501000,54.8175009765625,4.322326183319092,0.6835545301437378,0.14636552333831787
1710962175906408200,54.875408203125,1.2630805969238281,0.8964677453041077,0.5311092138290405
1710962175964315100,54.933315185546874,2.2935643196105957,0.42984771728515625,-0.4140167832374573
1710962176022222300,54.99122241210937,3.751737117767334,-0.18339651823043823,-0.20230311155319214
1710962176080129500,55.04912963867187,5.4128618240356445,-0.41343262791633606,-0.266598105430603
1710962176138036500,55.107036376953126,5.436224937438965,-0.7113045454025269,0.9392601251602173
1710962176195943700,55.164943603515624,2.94212007522583,-0.6307052373886108,0.18638908863067627
1710962176253851000,55.22285083007812,1.9670805931091309,-1.0679534673690796,0.9713850021362305
1710962176311757800,55.2807578125,0.07981109619140625,-0.8498415350914001,0.10054457187652588
1710962176369665000,55.3386650390625,-1.1764297485351562,-1.1061620712280273,0.5526741743087769
1710962176427572000,55.396572021484374,-4.3649091720581055,-1.097236156463623,1.0511808395385742
1710962176485479200,55.45447924804687,-5.154941558837891,-0.21448397636413574,0.6769769191741943
1710962176543386400,55.51238647460937,-4.444439888000488,0.08147871494293213,0.5519227981567383
1710962176601293300,55.570293212890626,-3.910310745239258,0.8242081999778748,0.05875229835510254
1710962176659200500,55.628200439453124,-6.888400077819824,0.9130144715309143,-0.5505921840667725
1710962176717107700,55.68610766601562,-4.5964813232421875,1.1052347421646118,-1.0222930908203125
1710962176775014700,55.7440146484375,-4.1017255783081055,0.6383935809135437,-0.047064781188964844
1710962176832921900,55.801921875,-4.471031188964844,0.6621113419532776,0.20938634872436523
1710962176890829000,55.8598291015625,-5.192801475524902,0.5459509491920471,-0.2026737928390503
1710962176948736000,55.91773608398437,-4.119428634643555,0.13143515586853027,-0.15711212158203125
1710962177006643200,55.97564331054687,-3.0866241455078125,-0.034982144832611084,0.41030681133270264
1710962177064550400,56.03355029296875,-3.124690055847168,-0.6339413523674011,0.8178958892822266
1710962177122457300,56.091457275390624,-1.1900949478149414,-1.2976173162460327,0.2886834144592285
1710962177180364500,56.14936450195312,-0.768035888671875,-1.1072163581848145,-0.20641779899597168
1710962177238271700,56.20727172851562,-1.3198108673095703,-0.6975542902946472,-0.643346905708313
1710962177296178700,56.2651787109375,1.9010744094848633,-0.5115530490875244,-0.13976502418518066
1710962177354086000,56.3230859375,0.7593021392822266,-0.37678468227386475,0.2601107358932495
1710962177411993000,56.3809931640625,3.0136184692382812,-0.2042151689529419,-0.02041339874267578
1710962177469900000,56.43890014648437,2.5690817832946777,0.28325891494750977,-0.1476244032382965
1710962177527807200,56.49680712890625,1.3045578002929688,0.2806093692779541,0.21726956963539124
1710962177585714400,56.55471435546875,1.5350761413574219,-0.01619088649749756,0.7139170169830322
1710962177643621400,56.61262133789062,1.9570388793945312,-0.24846839904785156,1.8652801513671875
1710962177701528600,56.67052856445312,2.6106505393981934,-0.589828372001648,1.3765696287155151
1710962177759435800,56.72843579101563,2.7472290992736816,-0.2863430976867676,1.3256659507751465
1710962177817343000,56.786343017578126,2.6889853477478027,-0.45285558700561523,0.8108100891113281
1710962177875250200,56.844250244140625,2.301299571990967,-0.35369086265563965,0.48536545038223267
1710962177933157000,56.9021572265625,2.3994412422180176,0.009267210960388184,0.5325701832771301
1710962177991064300,56.96006420898438,1.4179773330688477,-0.05979752540588379,0.16125744581222534
1710962178048971500,57.017971435546876,1.7630257606506348,0.009420394897460938,-0.24543583393096924
1710962178106878700,57.075878662109375,1.004781723022461,-0.06988728046417236,-0.38697272539138794
1710962178164786000,57.13378588867187,0.9229183197021484,0.007400393486022949,-0.1400720477104187
1710962178222692900,57.19169287109375,1.3142194747924805,0.25186288356781006,-0.14745134115219116
1710962178280600000,57.24960009765625,1.6482315063476562,0.3760838508605957,0.12123745679855347
1710962178338507300,57.30750732421875,1.6159372329711914,0.7587203979492188,0.07404462993144989
1710962178396414500,57.36541455078125,2.4467854499816895,0.7554193139076233,-0.08929087966680527
1710962178454321700,57.42332177734375,3.142843723297119,0.6533631682395935,-0.10854750871658325
1710962178512228900,57.48122875976563,3.47868013381958,0.5175858736038208,-0.012380272150039673
1710962178570135800,57.5391357421875,3.549834728240967,-0.2410658299922943,0.5461824536323547
1710962178628043000,57.59704296875,3.8317794799804688,-0.777489423751831,0.5282427072525024
1710962178685950200,57.6549501953125,2.489001750946045,-1.6437774896621704,0.5212033987045288
1710962178743857400,57.712857421875,-0.8744258880615234,-0.7674871683120728,0.756822943687439
1710962178801764600,57.7707646484375,-0.35474681854248047,-1.2500252723693848,0.4383279085159302
1710962178859671800,57.828671875,-0.6304702758789062,-1.8517727851867676,0.9744598865509033
1710962178917579000,57.8865791015625,-1.7175159454345703,-0.4855971932411194,0.4390265941619873
1710962178975486200,57.944486328125,-2.4721975326538086,-0.019152149558067322,0.21942448616027832
1710962179033393400,58.00239331054688,-4.897071838378906,0.9359574317932129,-0.4694555997848511
1710962179091300600,58.06030053710938,-5.27874755859375,1.0496869087219238,-0.7452684044837952
1710962179149207800,58.118207763671876,-3.8686485290527344,0.6347993612289429,-0.040914297103881836
1710962179207115000,58.176114990234375,-5.737856864929199,2.122758388519287,-0.23827970027923584
1710962179265022000,58.23402197265625,-4.327856063842773,0.8061043620109558,0.46260273456573486
1710962179322929200,58.29192919921875,-5.287642478942871,-0.03625929355621338,0.6253730058670044
1710962179380836400,58.34983642578125,-3.9481449127197266,-0.13152217864990234,-0.33278346061706543
1710962179438743600,58.40774365234375,-4.7514801025390625,1.3136999607086182,0.3369941711425781
1710962179496650800,58.46565063476562,-4.078094482421875,-0.5642859935760498,-0.19794195890426636
1710962179554558000,58.52355786132812,-2.4442338943481445,-0.19986239075660706,-1.0056095123291016
1710962179612465200,58.58146508789063,-3.8670654296875,1.0248414278030396,-1.344403624534607
1710962179670372400,58.63937231445313,-1.227156639099121,-0.5692063570022583,0.40536826848983765
1710962179728279600,58.697279541015625,-1.4032878875732422,0.18559633195400238,-0.569085419178009
1710962179786186800,58.755186767578124,1.1785001754760742,-0.9756267070770264,0.44515207409858704
1710962179844094000,58.81309399414062,3.4202027320861816,-0.6258926391601562,1.6701271533966064
1710962179902001200,58.87100122070313,2.0018739700317383,0.02325969934463501,0.8668121099472046
1710962179959908400,58.92890844726563,2.7226204872131348,0.09066139161586761,0.34188932180404663
1710962180017815600,58.986815673828126,1.5656547546386719,0.4616665244102478,-0.47691601514816284
1710962180075722800,59.04472265625,1.376852035522461,0.15104681253433228,-0.11400875449180603
1710962180133630000,59.1026298828125,2.1807780265808105,-0.7036535143852234,-0.06397145986557007
1710962180191537400,59.16053735351562,3.0595970153808594,-0.9297413229942322,0.6708094477653503
1710962180249444400,59.2184443359375,3.6663784980773926,-1.1012892723083496,1.3831264972686768
1710962180307351600,59.2763515625,3.433950901031494,-0.7637739181518555,0.6749823093414307
1710962180365258800,59.3342587890625,2.325674533843994,-0.37344861030578613,0.5315230488777161
1710962180423166200,59.392166259765624,1.7403240203857422,-0.3410094976425171,-0.160552516579628
1710962180481073200,59.4500732421875,2.2070541381835938,-0.21001899242401123,-0.48932623863220215
1710962180538980400,59.50798046875,0.99969482421875,0.24740982055664062,-1.1169346570968628
1710962180596887600,59.565887451171875,0.9083833694458008,-0.047391533851623535,-0.3852981925010681
1710962180654795000,59.623794921875,0.9537906646728516,0.32914483547210693,0.28682130575180054
1710962180712702000,59.68170190429687,0.44658756256103516,0.6959980726242065,0.18845528364181519
1710962180770609200,59.73960913085938,1.9545044898986816,0.6331764459609985,0.12855613231658936
1710962180828516400,59.79751635742188,3.446354389190674,0.4539569616317749,-0.018140047788619995
1710962180886423800,59.855423828125,4.443739414215088,0.045392513275146484,0.5792416930198669
1710962180944330800,59.913330810546874,4.164876937866211,-0.6096746325492859,0.5222927927970886
1710962181002238000,59.97123803710937,2.465972423553467,-0.047064900398254395,0.6726455092430115
1710962181060145200,60.02914526367187,2.6169004440307617,0.2731633186340332,0.530511736869812
1710962181118052400,60.08705224609375,2.9372730255126953,-0.5586984157562256,0.4066094160079956
1710962181175959600,60.14495947265625,1.7581501007080078,-1.3393702507019043,0.13628876209259033
1710962181233866800,60.20286669921875,0.5754537582397461,-1.9889785051345825,0.23734188079833984
1710962181291774000,60.26077392578125,-1.4784574508666992,-0.6201768517494202,-0.6651917695999146
1710962181349681200,60.31868115234375,-1.4758825302124023,-1.8484445810317993,0.03192293643951416
1710962181407588400,60.37658837890625,-2.3747825622558594,-0.6988699436187744,-0.2318553328514099
1710962181465495600,60.43449560546875,-1.853968620300293,-0.1232672929763794,0.196211576461792
1710962181523402800,60.49240283203125,-2.1921825408935547,-0.35088491439819336,0.4535099267959595
1710962181581310000,60.55031005859375,-3.5055465698242188,0.7190454006195068,0.8378114700317383
1710962181639217200,60.60821704101563,-5.298796653747559,0.7539980411529541,-0.40357863903045654
1710962181697124400,60.66612426757813,-5.634061813354492,0.8567709922790527,-0.0817253589630127
1710962181755031600,60.724031494140625,-4.941476821899414,0.14051008224487305,-0.822483241558075
1710962181812938800,60.781938720703124,-4.431241989135742,0.6531168222427368,-0.08652162551879883
1710962181870846000,60.83984594726562,-5.602827072143555,1.1390881538391113,-0.08597880601882935
1710962181928753200,60.89775317382812,-4.065702438354492,1.748847246170044,0.023192524909973145
1710962181986660400,60.95566040039063,-5.882892608642578,1.8827555179595947,-0.26112622022628784
1710962182044567600,61.013567626953126,-6.269631385803223,0.3211943209171295,0.2161962389945984
1710962182102474500,61.071474609375,-2.253676414489746,-0.8096451163291931,-0.14489153027534485
1710962182160381700,61.12938159179687,-2.161571502685547,0.24251294136047363,-0.7464807033538818
1710962182218289000,61.18728881835938,-1.3975191116333008,-0.25920456647872925,-0.15179142355918884
1710962182276196000,61.245196044921876,-0.7809505462646484,-1.4893473386764526,0.9023635387420654
1710962182334103300,61.303103271484375,0.5380325317382812,-1.8062375783920288,-0.38957858085632324
1710962182392010500,61.36101049804687,2.801018238067627,-0.9187582731246948,0.845793604850769
1710962182449917700,61.41891772460937,1.9971733093261719,-1.0196561813354492,0.14194059371948242
1710962182507825000,61.47682495117188,3.5070629119873047,-0.8912652134895325,0.17132696509361267
1710962182565731800,61.53473193359375,5.673959732055664,-1.4330155849456787,-0.06113986670970917
1710962182623639000,61.59263916015625,3.8011746406555176,-0.5095897912979126,0.2839422821998596
1710962182681546200,61.65054614257812,3.1885690689086914,-0.49716299772262573,0.3768984377384186
1710962182739453400,61.70845336914063,2.886967182159424,-0.39445221424102783,0.6969397068023682
1710962182797360600,61.76636059570313,2.8535356521606445,0.01878952980041504,0.7252428531646729
1710962182855267600,61.824267578125,2.5960640907287598,0.18791699409484863,-0.0902373194694519
1710962182913174800,61.8821748046875,1.9165754318237305,0.4767535328865051,0.31648069620132446
1710962182971082000,61.94008203125,1.9427928924560547,0.5843722820281982,0.09117739647626877
1710962183028989200,61.9979892578125,1.058476448059082,0.5606911182403564,0.16939064860343933
1710962183086896000,62.055896240234375,1.0808773040771484,0.5131145119667053,0.009143119677901268
1710962183144803300,62.11380322265625,0.9786901473999023,0.40704405307769775,-0.0957205668091774
1710962183202710500,62.17171044921875,1.506901741027832,0.2981213927268982,0.35194092988967896
1710962183260617700,62.22961767578125,2.307856559753418,0.15515637397766113,0.004188223741948605
1710962183318524700,62.287524658203125,2.468100070953369,0.7445904016494751,0.14528052508831024
1710962183376431900,62.345431884765624,2.1302289962768555,0.6939905285835266,-0.5934941172599792
1710962183434339000,62.40333911132812,4.209866046905518,0.1956218183040619,-0.07346324622631073
1710962183492246300,62.46124633789063,3.801403045654297,0.0737997442483902,0.03087902069091797
1710962183550153200,62.5191533203125,3.8010940551757812,-0.4120791256427765,1.0467414855957031
1710962183608060400,62.577060302734374,2.6979875564575195,-0.7560840845108032,1.3252304792404175
1710962183665967600,62.63496752929687,0.46983909606933594,-0.41151636838912964,0.4040830135345459
1710962183723874800,62.69287475585938,1.46278715133667,-1.475859522819519,0.05944770574569702
1710962183781781800,62.75078173828125,-0.28801822662353516,-1.765411138534546,1.273505449295044
1710962183839689000,62.80868896484375,-2.9703750610351562,-0.7009357213973999,0.7651752829551697
1710962183897596200,62.86659619140625,-4.8664655685424805,-0.7769420742988586,-0.17113354802131653
1710962183955503000,62.92450317382813,-5.203848838806152,0.5340688228607178,-0.6420412659645081
1710962184013410300,62.98241040039063,-5.2317657470703125,0.8251094222068787,-1.189576268196106
1710962184071317500,63.0403173828125,-5.014901161193848,0.5421081185340881,-1.3224401473999023
1710962184129224400,63.09822436523437,-5.035480499267578,0.8618838787078857,-1.153546690940857
1710962184187131600,63.15613159179688,-5.147754669189453,0.5618217587471008,-0.7733296155929565
1710962184245038800,63.21403881835938,-3.79647159576416,0.15917545557022095,0.28147590160369873
1710962184302946000,63.271946044921876,-4.661737442016602,1.108986735343933,0.28951185941696167
1710962184360853000,63.32985302734375,-4.527032852172852,0.6678445935249329,0.2933168411254883
1710962184418760200,63.38776025390625,-5.611086845397949,0.8655846118927002,-0.18445292115211487
1710962184476667100,63.44566723632813,-4.546220779418945,0.13423094153404236,-0.4943745732307434
1710962184534574300,63.50357421875,-2.1339502334594727,-1.8329923152923584,1.7525521516799927
1710962184592481500,63.5614814453125,-1.2450752258300781,-1.3838775157928467,0.3142801523208618
1710962184650388500,63.61938842773438,0.5508003234863281,0.23682813346385956,-0.5462809801101685
1710962184708295700,63.67729565429688,1.300734519958496,0.006308026611804962,-0.4710397720336914
1710962184766203000,63.735202880859376,1.3857431411743164,-0.2706490159034729,-0.28666257858276367
1710962184824109800,63.79310986328125,-0.5071992874145508,-0.5365472435951233,0.69797682762146
1710962184882017000,63.85101708984375,4.541055679321289,-1.3368384838104248,0.0923459529876709
1710962184939924000,63.90892407226563,2.7261877059936523,-0.44479942321777344,-1.7599279880523682
1710962184997831200,63.9668310546875,2.2289071083068848,-0.258698046207428,-0.18005967140197754
1710962185055738400,64.02473828125,2.2232460975646973,0.10983675718307495,-1.6812753677368164
1710962185113645300,64.08264526367188,4.155148506164551,-0.10585623979568481,0.8079033493995667
1710962185171552500,64.14055249023437,2.8399577140808105,0.3052564263343811,0.5452975034713745
1710962185229459500,64.19845947265625,2.634049892425537,0.5018542408943176,0.569350004196167
1710962185287366700,64.25636669921874,2.8703598976135254,0.08163654804229736,0.7053242921829224
1710962185345273900,64.31427392578125,1.9072680473327637,0.1263120174407959,0.04674999415874481
1710962185403180800,64.37218090820312,1.942634105682373,0.006214261054992676,-0.3555249273777008
1710962185461088000,64.430087890625,1.436375617980957,0.3520423173904419,0.3898872435092926
1710962185518995000,64.48799487304687,1.133194923400879,0.3389132618904114,-0.2322176992893219
1710962185576902100,64.54590209960938,1.172652244567871,0.675723671913147,0.17156445980072021
1710962185634809000,64.60380908203125,1.6962709426879883,0.7616924047470093,0.10331138968467712
1710962185692716300,64.66171630859375,2.828784942626953,0.6770464777946472,0.1638062596321106
1710962185750623200,64.71962329101562,3.3097596168518066,0.6836147904396057,0.17090705037117004
1710962185808530400,64.77753051757813,3.307762622833252,0.4105195999145508,-0.20065158605575562
1710962185866437400,64.83543725585938,3.7309155464172363,-0.30797505378723145,-0.27868497371673584
1710962185924344600,64.89334448242188,4.505560874938965,0.1920270174741745,0.2617708444595337
1710962185982251500,64.95125146484375,3.7455320358276367,-0.641029953956604,0.6228503584861755
1710962186040158700,65.00915869140626,2.5303750038146973,-1.6721415519714355,0.6094251275062561
1710962186098065700,65.06706567382813,1.1380014419555664,-1.5376056432724,0.4653071165084839
1710962186155972900,65.12497290039063,-0.5328149795532227,-2.0163333415985107,0.5987281203269958
1710962186213879800,65.1828798828125,-3.242582321166992,-1.1300138235092163,1.194969654083252
1710962186271787000,65.240787109375,-3.387735366821289,-0.9692362546920776,0.9717066287994385
1710962186329694000,65.29869384765625,-4.838418006896973,-0.8617758750915527,-0.01768803596496582
1710962186387601000,65.35660083007812,-5.070185661315918,-0.29721343517303467,-0.27433907985687256
1710962186445508000,65.41450805664063,-5.169617652893066,0.3804103136062622,-0.9968187808990479
1710962186503415000,65.4724150390625,-6.369062423706055,1.7329412698745728,-1.3835018873214722
1710962186561322200,65.530322265625,-4.489898681640625,1.0296382904052734,0.045128703117370605
1710962186619229200,65.58822924804687,-5.941606521606445,1.803004503250122,0.2731632590293884
1710962186677136100,65.64613623046876,-5.640480041503906,1.4614500999450684,0.28485602140426636
1710962186735043300,65.70404321289062,-6.01918888092041,1.3065351247787476,0.14659303426742554
1710962186792950300,65.7619501953125,-5.181514739990234,0.30163711309432983,0.20559966564178467
1710962186850857200,65.81985717773438,-3.772200584411621,-0.7663609385490417,0.8501401543617249
1710962186908764400,65.87776440429687,-3.397149085998535,-0.6360374093055725,-0.8174536228179932
1710962186966671400,65.93567138671875,-2.252762794494629,-0.29628825187683105,-0.6936986446380615
1710962187024578300,65.99357836914062,-0.37314701080322266,-1.6796538829803467,0.12114882469177246
1710962187082485500,66.05148559570313,1.9963760375976562,-1.3031330108642578,-0.6309251189231873
1710962187140392400,66.10939233398437,3.0166125297546387,-0.5642836093902588,0.04130268096923828
1710962187198299600,66.16729956054688,3.3682308197021484,0.12864795327186584,-0.9035475254058838
1710962187256206600,66.22520654296875,4.02152681350708,-0.16659802198410034,0.722265362739563
1710962187314113500,66.28311352539062,3.0079636573791504,-0.19679352641105652,0.5994275808334351
1710962187372020500,66.3410205078125,4.285130023956299,0.11975323408842087,0.7334270477294922
1710962187429927700,66.398927734375,2.0397777557373047,0.5576409101486206,-0.3858376741409302
1710962187487834600,66.45683471679688,3.4238877296447754,-0.057726919651031494,1.5808384418487549
1710962187545741600,66.51474145507812,3.0088109970092773,-0.145463228225708,0.9141650199890137
1710962187603648500,66.5726484375,2.375674247741699,0.009184479713439941,0.4727908968925476
1710962187661555700,66.6305556640625,2.15512752532959,0.14025795459747314,0.598003625869751
1710962187719462700,66.68846264648438,1.9797639846801758,-0.01690465211868286,-0.14315944910049438
1710962187777369600,66.74636962890625,1.711136817932129,0.1871456503868103,-0.05682241916656494
1710962187835276500,66.80427661132812,0.8509654998779297,0.23555350303649902,-0.5899090766906738
1710962187893183500,66.86218359375,0.8278207778930664,0.43761497735977173,-0.11241507530212402
1710962187951090700,66.92009057617187,0.8675460815429688,0.35656410455703735,-0.17092323303222656
1710962188008997600,66.97799755859376,1.585012435913086,0.4106637239456177,0.07026812434196472
1710962188066904600,67.03590454101563,2.4586267471313477,0.884306788444519,-0.22629201412200928
1710962188124811500,67.0938115234375,3.09431791305542,0.8263416290283203,-0.3390278220176697
1710962188182718500,67.15171850585938,3.4892959594726562,1.037622332572937,-0.29071366786956787
1710962188240625400,67.20962548828125,3.670776844024658,1.0381370782852173,-0.4301772713661194
1710962188298532400,67.26753247070313,4.7809157371521,-0.26870957016944885,0.3962661027908325
1710962188356439300,67.32543920898438,4.046278953552246,-0.10221275687217712,-0.3137734532356262
1710962188414346200,67.38334619140625,3.21905517578125,-1.1287986040115356,0.44121253490448
1710962188472253400,67.44125341796875,1.8363852500915527,-1.1954114437103271,0.8063730001449585
1710962188530160000,67.49916015625,0.8762216567993164,-2.7593085765838623,1.2425205707550049
1710962188588067300,67.5570673828125,-1.9981660842895508,-1.362091302871704,2.0758769512176514
1710962188645974300,67.61497436523437,-3.279825210571289,-1.3449134826660156,1.8631651401519775
1710962188703881200,67.67288110351562,-5.257830619812012,0.5341582298278809,0.1498873233795166
1710962188761788200,67.7307880859375,-6.167223930358887,0.8600128889083862,0.0009294748306274414
1710962188819695000,67.78869506835937,-4.699007987976074,-0.4831817150115967,-1.198121190071106
1710962188877602000,67.84660205078124,-5.928874969482422,0.839407205581665,-0.5228687524795532
1710962188935509000,67.90450903320313,-4.651853561401367,0.46546781063079834,-0.07784426212310791
1710962188993416000,67.962416015625,-3.7598400115966797,0.47229474782943726,0.2101658582687378
1710962189051323000,68.02032299804688,-3.992060661315918,0.46963387727737427,-0.1574876308441162
1710962189109229600,68.0782294921875,-5.7091779708862305,0.7501470446586609,-0.7965845465660095
1710962189167136500,68.13613647460937,-5.3681840896606445,0.17801249027252197,-0.21648311614990234
1710962189225043500,68.19404345703126,-5.969760894775391,0.5666458606719971,0.8787516355514526
1710962189282950400,68.25195043945313,-3.988572120666504,0.029087185859680176,-0.04918491840362549
1710962189340857300,68.309857421875,-2.49053955078125,-0.9030400514602661,0.9661189317703247
1710962189398764300,68.36776440429688,-1.7521896362304688,-0.7215664386749268,-0.5025593042373657
1710962189456671200,68.42567114257812,-0.5466337203979492,-0.9601800441741943,-0.8988675475120544
1710962189514578200,68.483578125,-0.2922954559326172,-0.04108691215515137,-1.124730110168457
1710962189572485000,68.54148510742188,1.9767704010009766,-1.1145011186599731,-0.09767794609069824
1710962189630392000,68.59939208984375,2.5734176635742188,-0.804449200630188,-0.25597119331359863
1710962189688298800,68.657298828125,2.738370895385742,-0.257474422454834,-0.1808168888092041
1710962189746205700,68.71520581054688,2.2517499923706055,-0.030568774789571762,0.13747906684875488
1710962189804112600,68.77311254882812,0.7124624252319336,0.543266236782074,-0.015463173389434814
1710962189862019600,68.83101953125,0.6706008911132812,0.36629292368888855,0.5426987409591675
1710962189919926300,68.88892626953125,0.9059076309204102,0.3077467679977417,-0.17049247026443481
1710962189977833200,68.94683325195312,3.707075595855713,-0.31316274404525757,0.15058600902557373
1710962190035740200,69.004740234375,4.608643531799316,-0.21773149073123932,-0.16970610618591309
1710962190093647000,69.06264721679688,3.7598280906677246,0.32300829887390137,-0.13757586479187012
1710962190151554000,69.12055395507812,1.570516586303711,0.9364045262336731,-0.25816071033477783
1710962190209460700,69.17846069335937,2.78330135345459,0.07887206971645355,-0.03671383857727051
1710962190267367700,69.23636767578125,1.378819465637207,0.49321579933166504,-0.6632519960403442
1710962190325274600,69.29427465820312,0.7000560760498047,0.2019520401954651,-0.43216514587402344
1710962190383181600,69.352181640625,1.0345516204833984,0.35010746121406555,0.139631986618042
1710962190441088300,69.41008813476563,0.4707822799682617,0.1779525876045227,-0.3149433135986328
1710962190498995200,69.4679951171875,1.0629949569702148,-0.021921809762716293,0.4181485176086426
1710962190556902100,69.52590209960937,0.6899642944335938,-0.2814009487628937,-0.9424422979354858
1710962190614808800,69.58380883789063,0.6183376312255859,0.17940515279769897,-0.31803274154663086
1710962190672715800,69.6417158203125,0.9649028778076172,0.38244330883026123,-0.8750587701797485
1710962190730622700,69.69962280273438,2.4451518058776855,0.9443356394767761,-0.6489385366439819
1710962190788529400,69.757529296875,4.362030029296875,0.9490188360214233,-0.3077054023742676
1710962190846436400,69.81543627929688,4.6784491539001465,1.2777953147888184,-0.5490462779998779
1710962190904343000,69.87334301757812,5.437321662902832,-0.008425086736679077,0.2413867712020874
1710962190962250000,69.93125,4.333285331726074,0.767839789390564,-0.9742489457130432
1710962191020156700,69.98915673828125,4.938111305236816,-0.7736760377883911,-0.15051090717315674
1710962191078063600,70.04706372070312,3.2509303092956543,-1.0735305547714233,0.769940972328186
1710962191135970600,70.10497045898437,2.854403495788574,-1.1088016033172607,0.6854854822158813
1710962191193877200,70.16287719726563,-0.3084831237792969,-0.6066367030143738,-0.07031595706939697
1710962191251784200,70.2207841796875,-1.6707334518432617,-1.5641231536865234,0.6857571601867676
1710962191309691000,70.27869091796875,-3.5990772247314453,-1.8201817274093628,0.39675259590148926
1710962191367597800,70.33659790039063,-4.418397903442383,0.41111937165260315,-0.5607221126556396
1710962191425504500,70.39450439453125,-4.386713027954102,-0.925454318523407,0.3875809907913208
1710962191483411500,70.45241137695312,-3.928168296813965,-0.8589640855789185,0.5050935745239258
1710962191541318100,70.51031811523437,-3.649465560913086,-0.09411796927452087,-0.42402535676956177
1710962191599225000,70.56822509765625,-4.235415458679199,0.6898282170295715,0.20438110828399658
1710962191657131800,70.6261318359375,-4.959738731384277,1.1527717113494873,0.4639345407485962
1710962191715038500,70.68403857421875,-4.819856643676758,1.5866773128509521,0.5349911451339722
1710962191772945400,70.7419453125,-6.641075134277344,1.2074036598205566,0.16828715801239014
1710962191830852000,70.79985205078125,-7.017910003662109,1.830575942993164,1.4152029752731323
1710962191888759000,70.85775903320312,-5.478776931762695,0.6032634973526001,1.166724681854248
1710962191946665700,70.91566577148437,-8.23180866241455,1.6502889394760132,-0.6233265995979309
1710962192004572700,70.97357275390625,-4.500348091125488,-0.30584943294525146,-0.6586110591888428
1710962192062479400,71.03147924804688,-1.8057546615600586,-1.7915254831314087,-0.4024510383605957
1710962192120386000,71.08938598632812,-0.6978826522827148,-0.7138676643371582,-0.16725707054138184
1710962192178293000,71.14729296875,-0.41885948181152344,-0.7658818960189819,-0.2806965112686157
1710962192236199700,71.20519970703126,-0.4219350814819336,-1.5234224796295166,-0.5483524799346924
1710962192294106400,71.2631064453125,2.1277313232421875,-1.7816983461380005,0.16874313354492188
1710962192352013300,71.32101342773437,1.406346321105957,-0.9394551515579224,-0.9895850419998169
1710962192409920000,71.378919921875,1.1292915344238281,-0.8377934694290161,-0.8573070764541626
1710962192467826700,71.43682666015626,0.6252861022949219,-1.0384200811386108,-4.055886745452881
1710962192525733600,71.49473364257813,6.422428131103516,-2.0149121284484863,-1.7381038665771484
1710962192583640300,71.55264038085937,3.3614344596862793,-0.5354828238487244,-2.1791634559631348
1710962192641547000,71.61054711914062,3.5280022621154785,-0.47788387537002563,-2.820751190185547
1710962192699453700,71.66845361328124,3.9595649242401123,-0.2893356680870056,-3.4959609508514404
1710962192757360600,71.72636059570313,3.448212146759033,1.2947357892990112,-1.8232793807983398
1710962192815267300,71.78426733398437,3.3133909702301025,0.7337731122970581,-1.214601993560791
1710962192873174000,71.84217407226562,0.7053942680358887,1.266272783279419,-1.2939963340759277
1710962192931080700,71.90008081054688,2.031651496887207,0.4137289524078369,-0.9503278732299805
1710962192988987600,71.95798754882813,0.5566039085388184,1.0782548189163208,-0.9461774826049805
1710962193046894300,72.01589428710938,1.0592279434204102,0.35151779651641846,-0.5486912727355957
1710962193104801000,72.07380102539062,0.287259578704834,0.6542220115661621,-0.5237250328063965
1710962193162707700,72.13170776367187,0.6596379280090332,-0.09797829389572144,-0.6572966575622559
1710962193220614400,72.18961450195313,-0.09392642974853516,0.47027695178985596,-0.6943273544311523
1710962193278521300,72.24752124023438,2.1601505279541016,0.47023361921310425,-1.1843786239624023
1710962193336428000,72.30542797851562,3.473583221435547,0.6815585494041443,-1.9502382278442383
1710962193394334700,72.36333471679687,3.5167622566223145,1.1072875261306763,-2.62410569190979
1710962193452241400,72.42124145507813,4.208212375640869,0.5134958028793335,-1.9159780740737915
