time,seconds_elapsed,z,y,x
1710962121180133600,0.149133544921875,-0.12560546398162842,-1.324851393699646,1.3795984983444214
1710962121213466600,0.182466552734375,-0.14270919561386108,-1.149767279624939,2.4184205532073975
1710962121246799600,0.215799560546875,0.9953756332397461,-0.9432245492935181,3.0250682830810547
1710962121280132400,0.24913232421875,1.5321576595306396,-0.3474193811416626,2.859757900238037
1710962121313465300,0.28246533203125,1.6017942428588867,-3.575899839401245,4.379621982574463
1710962121346798300,0.31579833984375,1.6120258569717407,-5.193576335906982,5.06071662902832
1710962121380131300,0.34913134765625,2.1736998558044434,-2.9264163970947266,3.8378005027770996
1710962121413464300,0.38246435546875,1.8237608671188354,-4.262950420379639,4.140322685241699
1710962121446797300,0.41579736328125,2.695668935775757,-4.381531238555908,3.980280637741089
1710962121480130300,0.44913037109375,1.8715596199035645,-2.8721275329589844,0.6061131954193115
1710962121513463300,0.48246337890625,0.7547781467437744,-1.7376314401626587,-0.31954947113990784
1710962121546796300,0.51579638671875,-0.241742804646492,0.1787491738796234,-0.10246963053941727
1710962121580129300,0.54912939453125,-0.7713474035263062,1.0149227380752563,-1.0594382286071777
1710962121613462300,0.582462158203125,-0.870151937007904,1.0737167596817017,-1.3997565507888794
1710962121646795000,0.615794921875,-1.0062181949615479,-0.1954711228609085,0.36131614446640015
1710962121680128000,0.6491279296875,-1.0198858976364136,-0.15507884323596954,0.6272637844085693
1710962121713461000,0.6824609375,-0.41438350081443787,-0.5612159371376038,0.3100813329219818
1710962121746794000,0.7157939453125,0.2724378705024719,-1.209401249885559,0.8328902125358582
1710962121780127000,0.749126953125,0.611992597579956,-0.9863656163215637,1.2306281328201294
1710962121813460000,0.7824599609375,0.5301390886306763,-0.7204179763793945,1.1116656064987183
1710962121846793000,0.81579296875,0.635739266872406,-1.051802635192871,0.9121476411819458
1710962121880126000,0.8491259765625,0.7211052179336548,-1.2434560060501099,1.0995250940322876
1710962121913459000,0.882458984375,0.660402238368988,-0.9592592716217041,1.2913310527801514
1710962121946792000,0.9157919921875,0.5324297547340393,-0.4294256269931793,0.9466605186462402
1710962121980125000,0.949125,0.4106420576572418,-0.5931326746940613,0.6109999418258667
1710962122013457700,0.982457763671875,0.21746163070201874,-1.460841178894043,1.0055309534072876
1710962122046790700,1.015790771484375,-0.10850174725055695,-0.7124006152153015,0.29030516743659973
1710962122080123600,1.04912353515625,-0.02664821222424507,-1.8584264516830444,0.9427663683891296
1710962122113456600,1.08245654296875,0.26075541973114014,-1.8623205423355103,1.4864968061447144
1710962122146789600,1.11578955078125,0.1563768982887268,0.3313846290111542,0.1310267299413681
1710962122180122600,1.14912255859375,0.21837788820266724,2.010298252105713,-1.0051491260528564
1710962122213455600,1.18245556640625,0.37834352254867554,4.440019607543945,-2.746445655822754
1710962122246788600,1.21578857421875,0.4145362079143524,4.378324031829834,-2.411396026611328
1710962122280121600,1.24912158203125,-0.22784602642059326,0.22792237997055054,1.1870288848876953
1710962122313454600,1.28245458984375,-0.6164975762367249,-0.20997874438762665,-0.19661645591259003
1710962122346787600,1.31578759765625,-0.6640673279762268,1.8025338649749756,-2.182786226272583
1710962122380120300,1.349120361328125,-0.42156097292900085,1.26399564743042,-1.2070342302322388
1710962122413453300,1.382453369140625,-0.16286714375019073,0.08521319180727005,0.3810923397541046
1710962122446786300,1.415786376953125,-0.03871244564652443,0.33413344621658325,-0.05741964280605316
1710962122480119300,1.449119384765625,0.05757235363125801,0.33986014127731323,-0.38842248916625977
1710962122513452300,1.482452392578125,-0.053143709897994995,-0.13209572434425354,0.06711684167385101
1710962122546785300,1.515785400390625,0.025808297097682953,0.24487338960170746,-0.1530935913324356
1710962122580118300,1.5491181640625,0.14171656966209412,0.41148197650909424,-0.28518930077552795
1710962122613451300,1.582451171875,0.2722088098526001,0.2692309319972992,-0.17913095653057098
1710962122646784300,1.6157841796875,0.2501419484615326,0.36123979091644287,-0.09994988143444061
1710962122680117200,1.6491171875,0.18424680829048157,0.5393017530441284,-0.13682979345321655
1710962122713450200,1.6824501953125,0.17645850777626038,0.2680092453956604,-0.17859646677970886
1710962122746783000,1.715782958984375,0.08025006204843521,0.15179555118083954,-0.2409028857946396
1710962122780116000,1.749115966796875,0.030007870867848396,0.32130566239356995,-0.29710084199905396
1710962122813449000,1.782448974609375,-0.018554486334323883,0.5864133834838867,-0.4089622497558594
1710962122846782000,1.815781982421875,0.0022906772792339325,0.16859383881092072,-0.018936265259981155
1710962122880115000,1.849114990234375,-0.031229566782712936,-0.08956547826528549,0.2608317732810974
1710962122913448000,1.882447998046875,-0.014660334214568138,0.10926530510187149,-0.07513421028852463
1710962122946781000,1.915781005859375,-0.05719057470560074,-0.6619293689727783,0.26487863063812256
1710962122980114000,1.949114013671875,-0.13056860864162445,-1.4682477712631226,0.5577035546302795
1710962123013447000,1.982447021484375,-0.035200074315071106,-2.319845199584961,0.5766398310661316
1710962123046780000,2.01577978515625,1.052947998046875,-5.8943705558776855,2.742398738861084
1710962123080113000,2.04911279296875,2.7046024799346924,-8.599583625793457,6.701299667358398
1710962123113445600,2.082445556640625,2.6441287994384766,-8.26827621459961,9.321758270263672
1710962123146778600,2.115778564453125,1.4300698041915894,-5.870089530944824,8.549952507019043
1710962123180111600,2.149111572265625,-0.010308047756552696,-2.362222671508789,4.273792743682861
1710962123213444600,2.182444580078125,-0.5155550837516785,-0.3616979420185089,-0.3668137788772583
1710962123246777600,2.215777587890625,-0.29412296414375305,-0.3058817684650421,-2.3296186923980713
1710962123280110600,2.249110595703125,-0.09246700257062912,-0.04153761267662048,-2.703991651535034
1710962123313443600,2.282443603515625,0.04367557913064957,0.38002336025238037,-2.364818811416626
1710962123346776600,2.315776611328125,0.08131904155015945,-0.39949411153793335,-1.1286929845809937
1710962123380109600,2.349109619140625,-0.15240639448165894,-0.5739673376083374,-0.16156910359859467
1710962123413442600,2.382442626953125,-0.4706578254699707,-0.4429406225681305,0.2838912606239319
1710962123446775600,2.415775634765625,-0.5935144424438477,-0.9716289043426514,0.4489727318286896
1710962123480108300,2.4491083984375,-0.3522298038005829,-0.7568397521972656,-0.23441264033317566
1710962123513441300,2.482441162109375,-0.18974442780017853,-0.7750124335289001,-0.8665632009506226
1710962123546774300,2.515774169921875,-0.04718795046210289,-0.6891120672225952,-0.904817521572113
1710962123580107300,2.549107177734375,0.09116895496845245,-0.7976901531219482,-0.5689278841018677
1710962123613440300,2.582440185546875,0.2134147584438324,-0.47264307737350464,-0.5580853223800659
1710962123646773200,2.615773193359375,-0.13537901639938354,-0.48363831639289856,-0.6064186096191406
1710962123680106200,2.649106201171875,-0.15622419118881226,-0.3140518367290497,0.05062396824359894
1710962123713439200,2.682439208984375,-0.49524441361427307,-0.4391228258609772,0.32519981265068054
1710962123746772200,2.715772216796875,-0.8040276765823364,-0.4745519757270813,0.4999784827232361
1710962123780105200,2.749105224609375,-0.9094752073287964,0.12094775587320328,0.26999449729919434
1710962123813438200,2.782438232421875,-0.7299624681472778,-0.20303036272525787,0.17951273918151855
1710962123846771000,2.81577099609375,-0.11415208131074905,0.40842774510383606,0.3038201630115509
1710962123880104000,2.84910400390625,0.2560213506221771,0.6533774733543396,0.07933378964662552
1710962123913437000,2.88243701171875,-0.5170058608055115,0.6946097016334534,-0.18577392399311066
1710962123946770000,2.91577001953125,-1.0388984680175781,0.4378247857093811,0.5100574493408203
1710962123980103000,2.94910302734375,-0.556939959526062,-0.8040276765823364,1.6582212448120117
1710962124013436000,2.982435791015625,-0.4085804522037506,0.15149012207984924,0.5370110869407654
1710962124046769000,3.015768798828125,0.24365170300006866,0.3507026731967926,0.04650074616074562
1710962124080102000,3.049101806640625,0.402395635843277,0.15065020322799683,-0.26999449729919434
1710962124113435000,3.082434814453125,-0.6153522729873657,0.6957550048828125,-0.5968741178512573
1710962124146768000,3.115767822265625,-0.7623373866081238,0.5035672187805176,0.801355242729187
1710962124180100900,3.149100830078125,-0.3285594582557678,-0.6056550741195679,1.9532604217529297
1710962124213433600,3.18243359375,-0.22845686972141266,-0.4100312292575836,0.6907919049263
1710962124246766600,3.2157666015625,0.4238516390323639,-0.3315373361110687,-0.402395635843277
1710962124280099600,3.249099609375,1.1255624294281006,-0.33802759647369385,-1.0926530361175537
1710962124313432600,3.2824326171875,1.2646828889846802,0.05619794875383377,-1.9476864337921143
1710962124346765600,3.315765625,1.05714750289917,0.493946373462677,-1.7904696464538574
1710962124380098600,3.3490986328125,0.5084539651870728,0.6882721781730652,-0.8653414845466614
1710962124413431600,3.382431640625,-0.13682979345321655,0.8509865999221802,0.6814764738082886
1710962124446764500,3.4157646484375,-0.040697697550058365,0.4396573007106781,1.5162756443023682
1710962124480097500,3.44909765625,-0.5832064151763916,1.0567657947540283,1.0421817302703857
1710962124513430500,3.482430419921875,-0.9026032090187073,0.20081603527069092,1.5089454650878906
1710962124546763500,3.515763427734375,-0.28839626908302307,-0.48012593388557434,-0.33917292952537537
1710962124580096300,3.54909619140625,0.5981721878051758,0.8153283596038818,-2.5533416271209717
1710962124613429200,3.58242919921875,0.3994177579879761,0.5362475514411926,-3.5666608810424805
1710962124646762200,3.61576220703125,-0.6022953987121582,0.23914669454097748,-3.543830394744873
1710962124680095200,3.64909521484375,-0.0019088976550847292,-0.6349757313728333,-1.295912504196167
1710962124713428200,3.68242822265625,0.6742990016937256,-0.8541935086250305,0.6216134428977966
1710962124746761200,3.71576123046875,0.1304158866405487,-0.3558185398578644,1.2484954595565796
1710962124780094200,3.74909423828125,0.35268792510032654,-0.039476003497838974,1.1003649234771729
1710962124813427200,3.78242724609375,0.945209801197052,-0.07887565344572067,0.7413395047187805
1710962124846760200,3.81576025390625,0.5063160061836243,0.05963396281003952,0.38422292470932007
1710962124880093200,3.84909326171875,0.015042114071547985,-0.0029778804164379835,0.32306185364723206
1710962124913426200,3.88242626953125,0.05619794875383377,-0.3059581220149994,0.46874892711639404
1710962124946759000,3.915759033203125,0.15866757929325104,-0.046729814261198044,-0.007941014133393764
1710962124980092000,3.949091796875,0.2757211923599243,0.3282540440559387,-0.3441360890865326
1710962125013425000,3.9824248046875,0.2730487287044525,0.1934095174074173,-0.21364383399486542
1710962125046758000,4.0157578125,0.17355698347091675,0.19676917791366577,-0.1626380831003189
1710962125080091000,4.0490908203125,0.1608818918466568,0.22311195731163025,-0.03871244564652443
1710962125113424000,4.082423828125,-0.2586938142776489,-0.37047886848449707,0.5060869455337524
1710962125146756900,4.1157568359375,-0.5977140665054321,-0.9401702880859375,0.5005893111228943
1710962125180089900,4.14908984375,-0.5544965863227844,-0.9391776323318481,-0.04375193640589714
1710962125213422800,4.1824228515625,-0.5097520351409912,-0.8201388120651245,-0.3313846290111542
1710962125246755800,4.215755859375,-0.5543438792228699,-0.9895725846290588,-0.04558447748422623
1710962125280088800,4.2490888671875,-0.35413870215415955,-0.7380561828613281,0.033978380262851715
1710962125313421600,4.282421630859375,-0.045355409383773804,-0.3810923397541046,0.13973131775856018
1710962125346754600,4.315754638671875,0.0552053228020668,-0.6814764738082886,0.14797775447368622
1710962125380087600,4.349087646484375,0.15301723778247833,-0.2622825503349304,0.19440214335918427
1710962125413420500,4.382420654296875,-0.09376505762338638,-0.2919086217880249,0.29259583353996277
1710962125446753500,4.41575341796875,-0.6823163628578186,-0.7004127502441406,0.43881741166114807
1710962125480086500,4.44908642578125,-0.8039513230323792,0.04543176665902138,0.05474718660116196
1710962125513419500,4.48241943359375,-0.538080096244812,1.0986851453781128,-0.02023431472480297
1710962125546752500,4.51575244140625,0.1865374743938446,0.6350520849227905,0.9260444641113281
1710962125580085500,4.54908544921875,0.4903576374053955,0.1474432498216629,0.4521796703338623
1710962125613418500,4.58241845703125,0.3268796503543854,0.9833113551139832,-1.135183334350586
1710962125646751500,4.61575146484375,0.44790375232696533,1.2073396444320679,0.24746949970722198
1710962125680084200,4.649084228515625,0.36307233572006226,0.11911521852016449,-0.5215108394622803
1710962125713417200,4.682417236328125,0.14499986171722412,0.49142661690711975,-1.8319308757781982
1710962125746750200,4.715750244140625,0.1480541080236435,0.6537593007087708,-0.6445202231407166
1710962125780083200,4.749083251953125,-0.23807771503925323,0.40063944458961487,0.45385950803756714
1710962125813416200,4.782416259765625,-0.4628695249557495,0.15652960538864136,1.3328686952590942
1710962125846749200,4.815749267578125,-0.15423893928527832,-0.45798271894454956,1.3214917182922363
1710962125880082200,4.849082275390625,-0.10995250940322876,0.28518930077552795,0.020692450925707817
1710962125913415200,4.882415283203125,-0.39346200227737427,-0.23112933337688446,0.5648810267448425
1710962125946748200,4.915748046875,-0.4136199355125427,-0.3456631898880005,0.47264307737350464
1710962125980081200,4.9490810546875,-0.26701661944389343,-0.2569376230239868,0.5073086619377136
1710962126013414100,4.9824140625,-0.2256316989660263,-0.7169819474220276,0.5612159371376038
1710962126046747000,5.015746826171875,0.32397812604904175,-0.2596100866794586,-0.32245099544525146
1710962126080080000,5.049079833984375,0.6190173625946045,0.12759071588516235,-1.0411127805709839
1710962126113412900,5.082412841796875,0.06352811306715012,-0.3691807985305786,-0.08819106966257095
1710962126146745900,5.115745849609375,-0.11277767270803452,-0.5799230933189392,0.10033166408538818
1710962126180078800,5.149078857421875,0.05856497958302498,0.10132429003715515,-1.0912022590637207
1710962126213411800,5.182411865234375,0.6976639032363892,0.15561333298683167,-1.2475792169570923
1710962126246744800,5.215744873046875,1.1146435737609863,-0.21738526225090027,-0.6091674566268921
1710962126280077800,5.249077880859375,0.6957550048828125,-0.22372281551361084,-0.6775059700012207
1710962126313410800,5.282410888671875,0.24403348565101624,0.2770192325115204,-0.391934871673584
1710962126346743800,5.315743896484375,0.3270323574542999,0.126216322183609,0.30336201190948486
1710962126380076800,5.349076904296875,0.423164427280426,-0.032069481909275055,1.2044380903244019
1710962126413409500,5.382409423828125,0.1754658818244934,-0.2925194799900055,1.6339401006698608
1710962126446742500,5.415742431640625,0.208298921585083,-0.4811949133872986,1.4251066446304321
1710962126480075500,5.449075439453125,0.34337252378463745,-0.021532366052269936,0.07864658534526825
1710962126513408500,5.482408447265625,0.5200600624084473,0.3901023268699646,-0.9290223121643066
1710962126546741500,5.515741455078125,0.5893912315368652,0.30985227227211,-0.3972034156322479
1710962126580074500,5.549074462890625,0.2345653474330902,-0.08620581775903702,0.3197021782398224
1710962126613407500,5.582407470703125,-0.06940752267837524,-0.13904410600662231,0.37116608023643494
1710962126646740500,5.615740478515625,-0.09391776472330093,0.030389651656150818,0.17096087336540222
1710962126680073500,5.649073486328125,-0.04428642615675926,-0.08108997344970703,0.3061871826648712
1710962126713406500,5.682406494140625,-0.10338589549064636,-0.0331384651362896,0.5413633584976196
1710962126746739500,5.715739501953125,-0.21807247400283813,0.22250111401081085,0.4020902216434479
1710962126780072200,5.749072265625,-0.32344362139701843,0.20585553348064423,0.2253262847661972
1710962126813405200,5.7824052734375,-0.4217900335788727,-0.04604261368513107,0.10369132459163666
1710962126846738200,5.81573828125,-0.280913382768631,-0.10453123599290848,-0.15652960538864136
1710962126880071200,5.8490712890625,-0.1776038408279419,0.029473381116986275,-0.6372663974761963
1710962126913404200,5.882404052734375,-0.0853659063577652,0.05337277799844742,-0.8460997939109802
1710962126946737200,5.915737060546875,0.41835400462150574,0.6454364657402039,-1.690901517868042
1710962126980070100,5.949070068359375,0.2262425571680069,0.898785412311554,-1.3736428022384644
1710962127013403100,5.982403076171875,-0.11667182296514511,-0.10598199814558029,0.45775365829467773
1710962127046736100,6.015736083984375,-0.14530529081821442,-0.5060105919837952,0.489212304353714
1710962127080069000,6.049069091796875,-0.39918869733810425,0.21066594123840332,-0.35146623849868774
1710962127113402000,6.082402099609375,-0.4792860448360443,0.029320668429136276,0.3563530147075653
1710962127146734800,6.11573486328125,-0.14110571146011353,-0.19234053790569305,1.0476794242858887
1710962127180067800,6.14906787109375,-0.20096874237060547,0.5445703268051147,0.5454866290092468
1710962127213400800,6.18240087890625,-0.5016583204269409,0.1707318127155304,0.45561569929122925
1710962127246733800,6.21573388671875,-0.29862794280052185,0.2707580327987671,0.7663078904151917
1710962127280066800,6.24906689453125,-0.6388698816299438,0.3981960713863373,0.48928865790367126
1710962127313399800,6.28239990234375,-0.9794172048568726,0.5277720093727112,0.20012883841991425
1710962127346732800,6.31573291015625,-0.10353861004114151,0.9723161458969116,0.11277767270803452
1710962127380065800,6.349065673828125,-0.18142163753509521,0.3518480062484741,0.0949103906750679
1710962127413398800,6.382398681640625,0.19661645591259003,0.6134433746337891,0.38368842005729675
1710962127446731800,6.415731689453125,-0.013667707331478596,-0.14095300436019897,0.40690064430236816
1710962127480064800,6.449064697265625,-0.5557183027267456,-0.023899398744106293,0.1769929975271225
1710962127513397500,6.4823974609375,-0.07841751724481583,0.07414158433675766,0.24907296895980835
1710962127546730500,6.51573046875,0.3524588644504547,0.0325276181101799,0.17775654792785645
1710962127580063500,6.5490634765625,0.2715979516506195,0.7013289928436279,0.11827529966831207
1710962127613396500,6.582396484375,0.46997061371803284,0.774707019329071,0.5842754244804382
1710962127646729500,6.6157294921875,0.18569757044315338,-0.4792860448360443,0.6279509663581848
1710962127680062500,6.6490625,-0.29771167039871216,-0.43538138270378113,0.3602471649646759
1710962127713395500,6.6823955078125,0.05482354015111923,0.05528167635202408,-0.2757211923599243
1710962127746728400,6.715728515625,0.37116608023643494,0.6199336051940918,-0.14629791676998138
1710962127780061400,6.7490615234375,0.4453839957714081,0.4217900335788727,0.5898494124412537
1710962127813394400,6.78239453125,-0.1361425817012787,-0.19821994006633759,-0.039476003497838974
1710962127846727400,6.8157275390625,-0.16706672310829163,-0.08590039610862732,-0.7160657048225403
1710962127880060200,6.84906005859375,0.5295282006263733,-0.27419406175613403,-1.0106468200683594
1710962127913393200,6.88239306640625,0.6282563805580139,-0.1462215632200241,-1.4106754064559937
1710962127946726100,6.91572607421875,0.3479538559913635,0.10560022294521332,-1.2174949645996094
1710962127980059100,6.94905908203125,0.3936147093772888,0.0880383625626564,-0.61313796043396
1710962128013392100,6.98239208984375,0.36971530318260193,-0.057496000081300735,-0.2387649267911911
1710962128046725000,7.01572509765625,0.05031854286789894,-0.39865419268608093,0.689341127872467
1710962128080058000,7.04905810546875,-0.08658760040998459,-0.7756233215332031,1.5545299053192139
1710962128113391000,7.08239111328125,-0.05100574716925621,-0.8050203323364258,1.6304277181625366
1710962128146724000,7.11572412109375,0.1086544543504715,-0.47737714648246765,0.6259657144546509
1710962128180057000,7.14905712890625,0.33947837352752686,0.12071868777275085,-0.6724664568901062
1710962128213390000,7.18239013671875,0.5894675850868225,0.45645561814308167,-0.6943806409835815
1710962128246722800,7.215722900390625,0.41087114810943604,0.17080816626548767,0.13927318155765533
1710962128280055800,7.249055908203125,-0.05375456064939499,-0.2844257652759552,0.6181774139404297
1710962128313388800,7.282388916015625,-0.29481014609336853,-0.3014531135559082,0.34451785683631897
1710962128346721800,7.3157216796875,-0.24525517225265503,-0.26159533858299255,-0.03367295488715172
1710962128380054800,7.3490546875,-0.03061871975660324,-0.28190600872039795,-0.13117945194244385
1710962128413387800,7.3823876953125,0.17149536311626434,-0.17661121487617493,-0.05856497958302498
1710962128446720800,7.415720703125,0.14667969942092896,-0.193104088306427,-0.0850604772567749
1710962128480053800,7.4490537109375,-0.0587940476834774,-0.2572430372238159,-0.21692712604999542
1710962128513386800,7.48238671875,0.02733541466295719,-0.1080436110496521,-0.3452814221382141
1710962128546719700,7.5157197265625,0.07078192383050919,0.14973393082618713,-0.5356366634368896
1710962128580052700,7.549052734375,-0.1146102175116539,0.03749075159430504,-0.46164780855178833
1710962128613385500,7.582385498046875,-0.34841200709342957,-0.18287239968776703,0.24342262744903564
1710962128646718500,7.615718505859375,-0.17225892841815948,-0.4369848668575287,0.8525137305259705
1710962128680051500,7.649051513671875,0.07482878863811493,-0.2020377367734909,0.3682645559310913
1710962128713384400,7.682384521484375,0.1375933438539505,0.291374146938324,-0.3637595474720001
1710962128746717400,7.715717529296875,0.22334103286266327,0.2101314514875412,-0.5843517780303955
1710962128780050400,7.749050537109375,0.25747212767601013,0.0725381150841713,-0.5185329914093018
1710962128813383400,7.782383544921875,0.08574768155813217,-0.09231429547071457,-0.45019441843032837
1710962128846716400,7.81571630859375,-0.039170581847429276,-0.18409408628940582,-0.44400960206985474
1710962128880049400,7.84904931640625,0.10071343928575516,-0.08246438205242157,-0.42041563987731934
1710962128913382400,7.88238232421875,0.2513636350631714,0.12827792763710022,-0.3497864007949829
1710962128946715400,7.91571533203125,0.22784602642059326,-0.02405211143195629,0.09659022092819214
1710962128980048100,7.949048095703125,0.2539597451686859,-0.13537901639938354,0.40522080659866333
1710962129013381000,7.982381103515625,0.3796415627002716,0.04680617153644562,0.18134528398513794
1710962129046714000,8.015714111328125,0.47531551122665405,0.0856713280081749,-0.07062921673059464
1710962129080047000,8.049047119140624,0.532353401184082,0.06322269141674042,-0.23433628678321838
1710962129113380000,8.082380126953124,0.38216131925582886,0.07200361788272858,-0.30756160616874695
1710962129146713000,8.115713134765626,-0.028786176815629005,-0.3591018319129944,0.03436015918850899
1710962129180046000,8.149046142578126,-0.12110047042369843,-0.4655419588088989,0.4273640215396881
1710962129213379000,8.182379150390625,0.3249707520008087,0.16905197501182556,0.09071081876754761
1710962129246712000,8.215712158203125,0.34963369369506836,0.46928340196609497,-0.5731274485588074
1710962129280045000,8.249045166015625,-0.0022906772792339325,0.1582094430923462,-0.29114508628845215
1710962129313378000,8.2823779296875,-0.13835690915584564,-0.15446799993515015,0.0029015245381742716
1710962129346710800,8.315710693359375,-0.396668940782547,-0.33199548721313477,-0.08315158635377884
1710962129380043800,8.349043701171874,-1.1441168785095215,-1.0453886985778809,0.6705575585365295
1710962129413376800,8.382376708984374,-1.3510414361953735,-1.3542484045028687,1.2358967065811157
1710962129446709800,8.415709716796876,-0.7055285573005676,-1.0983797311782837,0.868701159954071
1710962129480042800,8.449042724609376,-0.5218926072120667,-0.48302745819091797,0.3274904787540436
1710962129513375700,8.482375732421875,-0.4596625566482544,-0.2354816198348999,0.17554223537445068
1710962129546708700,8.515708740234375,-0.05154023692011833,-0.02145601063966751,-0.058183200657367706
1710962129580041700,8.549041748046875,-0.002748812548816204,0.5151733160018921,-0.5816792845726013
1710962129613374700,8.582374755859375,-0.3080197274684906,0.6001574397087097,-0.6418477296829224
1710962129646707700,8.615707763671875,-0.2591519355773926,0.41056570410728455,0.8483904600143433
1710962129680040700,8.649040771484374,-0.12995775043964386,-0.5870242118835449,1.4407596588134766
1710962129713373400,8.68237353515625,0.005497625097632408,-0.3352024257183075,0.3050418496131897
1710962129746706400,8.71570654296875,0.44271156191825867,0.48547086119651794,-0.6756734251976013
1710962129780039400,8.749039306640626,0.35711658000946045,0.19890713691711426,-0.7687512636184692
1710962129813372400,8.782372314453125,0.0010689827613532543,-0.033978380262851715,-0.32787227630615234
1710962129846705400,8.815705322265625,-0.11323580890893936,-0.22379916906356812,0.0489441379904747
1710962129880038400,8.849038330078125,-0.16973918676376343,-0.28496024012565613,-0.07177454978227615
1710962129913371400,8.882371337890625,0.04352286830544472,-0.022601349279284477,-0.09811734408140182
1710962129946704400,8.915704345703125,0.40514445304870605,0.17088451981544495,-0.4886014461517334
1710962129980037400,8.949037353515624,0.4187358021736145,0.5299863815307617,-1.0078216791152954
1710962130013370400,8.982370361328124,0.41919392347335815,0.5491516590118408,-0.5627430081367493
1710962130046703400,9.015703369140626,0.14889401197433472,0.13682979345321655,-0.32611608505249023
1710962130080036000,9.0490361328125,-0.04107947647571564,0.555565595626831,0.29358845949172974
1710962130113369000,9.082369140625,-0.29114508628845215,0.045202698558568954,1.1223554611206055
1710962130146702000,9.1157021484375,-0.5035672187805176,0.16576866805553436,0.7566106915473938
1710962130180035000,9.14903515625,-0.20219044387340546,0.48333290219306946,0.1760767251253128
1710962130213368000,9.1823681640625,-0.10957072675228119,0.3403182923793793,-0.10010259598493576
1710962130246701000,9.215701171875,-0.3637595474720001,0.4861580729484558,-0.0358109213411808
1710962130280034000,9.249033935546874,-0.24181915819644928,0.3820849657058716,0.6686486601829529
1710962130313367000,9.282366943359374,0.007482878863811493,0.387658953666687,1.1813786029815674
1710962130346700000,9.315699951171876,0.24075017869472504,-0.3545968234539032,1.1257151365280151
1710962130380033000,9.349032958984376,0.23006035387516022,-0.4062897861003876,-0.32069480419158936
1710962130413366000,9.382365966796876,0.478751540184021,1.0558494329452515,-1.0161443948745728
1710962130446698800,9.41569873046875,0.7094991207122803,1.0277504920959473,-0.3274904787540436
1710962130480031700,9.44903173828125,0.5714476108551025,0.4853181540966034,0.40583163499832153
1710962130513364700,9.48236474609375,0.37208232283592224,0.5544202327728271,0.19654010236263275
1710962130546697700,9.51569775390625,0.2590755820274353,0.6483380198478699,-0.43057096004486084
1710962130580030700,9.54903076171875,0.13736428320407867,0.3406237065792084,-0.5929036140441895
1710962130613363700,9.58236376953125,-0.17836740612983704,0.5342622995376587,-0.6744517087936401
1710962130646696700,9.61569677734375,-0.4172086715698242,0.7010999321937561,-0.8224294781684875
1710962130680029700,9.64902978515625,-0.5028036236763,0.7793647646903992,-1.3624948263168335
1710962130713362700,9.68236279296875,-0.0009926267666742206,0.642076849937439,-2.2494449615478516
1710962130746695700,9.71569580078125,0.08819106966257095,0.3333698809146881,-1.5601038932800293
1710962130780028700,9.749028564453125,0.15614783763885498,-0.4558447599411011,0.13056860864162445
1710962130813361400,9.782361328125,0.41232189536094666,-0.8882482647895813,0.6137487888336182
1710962130846694400,9.8156943359375,0.4146125912666321,-0.36162158846855164,0.3736094534397125
1710962130880027400,9.84902734375,0.4822639226913452,-0.402395635843277,0.0656660795211792
1710962130913360400,9.8823603515625,0.49952033162117004,0.1393495351076126,-0.10728005319833755
1710962130946693400,9.915693359375,0.36841726303100586,0.19989976286888123,0.37047886848449707
1710962130980026400,9.9490263671875,0.12560546398162842,-0.16011834144592285,0.8151756525039673
1710962131013359400,9.982359375,0.21211670339107513,-0.09353598952293396,0.5854970812797546
1710962131046692400,10.0156923828125,0.24662958085536957,0.08078455179929733,0.10453123599290848
1710962131080025300,10.049025390625,-0.04963133856654167,0.07605048269033432,-0.21562908589839935
1710962131113358300,10.0823583984375,-0.07375980913639069,0.012980503961443901,-0.2973299026489258
1710962131146691300,10.11569140625,-0.03145863488316536,0.12400199472904205,-0.12216944992542267
1710962131180024000,10.149024169921875,0.02298312820494175,-0.12453648447990417,0.25747212767601013
1710962131213357000,10.182357177734374,-0.06001574173569679,-0.29229041934013367,0.40247198939323425
1710962131246690000,10.21568994140625,-0.2563267946243286,0.008857285603880882,0.2632751762866974
1710962131280023000,10.24902294921875,-0.22914408147335052,-0.17118994891643524,0.3149681091308594
1710962131313356000,10.28235595703125,-0.0787992998957634,-0.33260634541511536,0.4990622103214264
1710962131346689000,10.31568896484375,-0.15026842057704926,-0.29885703325271606,0.1769929975271225
1710962131380022000,10.34902197265625,-0.17065545916557312,-0.33863845467567444,-0.5988593697547913
1710962131413355000,10.38235498046875,0.09071081876754761,-0.2101314514875412,-0.903901219367981
1710962131446688000,10.41568798828125,0.23532891273498535,-0.12247487902641296,-0.4462239146232605
1710962131480021000,10.44902099609375,0.14270919561386108,-0.24456797540187836,-0.09437590092420578
1710962131513354000,10.48235400390625,0.08941277116537094,-0.31596073508262634,-0.10766182839870453
1710962131546686700,10.515686767578124,-0.10934165865182877,-0.20669543743133545,0.1790546029806137
1710962131580019700,10.549019775390626,-0.2973299026489258,-0.26518407464027405,0.6601731777191162
1710962131613352700,10.582352783203126,-0.3865135908126831,-0.5205182433128357,1.079290747642517
1710962131646685700,10.615685791015625,-0.7782194018363953,-0.5857261419296265,1.0084325075149536
1710962131680018700,10.649018798828125,-1.1449568271636963,-0.36490488052368164,1.0652412176132202
1710962131713351700,10.6823515625,-0.5427377820014954,-0.43018919229507446,0.07734853774309158
1710962131746684700,10.7156845703125,-0.23563432693481445,0.19440214335918427,-0.7288171648979187
1710962131780017700,10.749017578125,-0.25350162386894226,-0.04741701856255531,-0.43767204880714417
1710962131813350700,10.7823505859375,-0.13621893525123596,0.11842801421880722,-0.22899135947227478
1710962131846683600,10.81568359375,-0.0952158197760582,0.37261682748794556,-0.02214321307837963
1710962131880016600,10.8490166015625,-0.38483378291130066,-0.15271180868148804,0.3796415627002716
1710962131913349400,10.882349365234376,-0.5170822143554688,0.4001813232898712,0.5109737515449524
1710962131946682400,10.915682373046875,-0.8059365749359131,0.6487197875976562,0.7803573608398438
1710962131980015400,10.949015380859375,-1.2521605491638184,-0.13156123459339142,1.1820658445358276
1710962132013348400,10.982348388671875,-0.8310576677322388,0.5348731279373169,0.7769976854324341
1710962132046681300,11.015681396484375,-0.5651864409446716,0.09093988686800003,0.8477796316146851
1710962132080014300,11.049014404296875,-0.3810923397541046,-0.5635829567909241,0.7360709309577942
1710962132113347300,11.082347412109375,0.06635328382253647,-0.30244573950767517,-0.28610557317733765
1710962132146680300,11.115680419921874,0.4092676639556885,0.4214082658290863,-1.5565152168273926
1710962132180013300,11.149013427734374,0.7350783348083496,0.3352024257183075,-1.7100669145584106
1710962132213346300,11.18234619140625,0.9894198179244995,0.3270323574542999,-1.6147747039794922
1710962132246679300,11.21567919921875,0.7017107605934143,0.04107947647571564,-1.405941367149353
1710962132280012000,11.249011962890625,0.0064902519807219505,0.3379512429237366,-0.4259895980358124
1710962132313345000,11.282344970703125,0.5159368515014648,0.39170581102371216,-0.016645587980747223
1710962132346678000,11.315677978515625,0.8840487003326416,0.34787750244140625,-0.5123481154441833
1710962132380011000,11.349010986328125,0.4119401276111603,0.07437065243721008,0.03871244564652443
1710962132413344000,11.382343994140625,0.11598462611436844,-0.07421794533729553,0.37322768568992615
1710962132446677000,11.415677001953124,0.27358320355415344,-0.10323318839073181,0.4518742561340332
1710962132480010000,11.449010009765624,0.6493306159973145,-0.010613471269607544,0.2787754237651825
1710962132513343000,11.482343017578126,0.38368842005729675,0.1423274129629135,0.0859767496585846
1710962132546676000,11.515676025390626,-0.02405211143195629,0.31328830122947693,-0.025121092796325684
1710962132580009000,11.549009033203125,-0.012216945178806782,-0.02420482225716114,0.856942355632782
1710962132613342000,11.582342041015625,0.20722992718219757,-0.6454364657402039,1.460612177848816
1710962132646674700,11.6156748046875,0.6471163034439087,-0.3016822040081024,0.11209046840667725
1710962132680007700,11.649007568359375,0.6505523324012756,0.5229616165161133,-1.7043402194976807
1710962132713340700,11.682340576171875,0.3366532027721405,0.717440128326416,-0.7416449189186096
1710962132746673700,11.715673583984374,0.45523393154144287,-0.24258272349834442,1.6395140886306763
1710962132780006700,11.749006591796874,0.7058340311050415,-0.5355603098869324,1.5410149097442627
1710962132813339600,11.782339599609376,0.27289602160453796,-0.033978380262851715,-0.5354839563369751
1710962132846672600,11.815672607421876,-0.2584647536277771,0.4999784827232361,-1.8912594318389893
1710962132880005600,11.849005615234375,-0.05543438717722893,0.19570018351078033,-1.401512622833252
1710962132913338600,11.882338623046875,0.16187451779842377,-0.025121092796325684,-0.3817031681537628
1710962132946671600,11.915671630859375,-0.013285927474498749,0.02367033064365387,0.18424680829048157
1710962132980004600,11.949004638671875,-0.27976804971694946,-0.10201149433851242,0.2244100123643875
1710962133013337300,11.98233740234375,-0.26816195249557495,-0.0847550556063652,0.3020639717578888
1710962133046670300,12.01567041015625,0.003359660040587187,-0.3593308925628662,0.29648998379707336
1710962133080003300,12.04900341796875,-0.03924693539738655,-0.20066332817077637,-0.4065952003002167
1710962133113336300,12.08233642578125,-0.2079934924840927,0.05856497958302498,-1.0776872634887695
1710962133146669300,12.11566943359375,-0.25113457441329956,-0.11323580890893936,-0.9097042679786682
1710962133180002300,12.149002197265625,-0.1698155403137207,0.1333937644958496,-1.035386085510254
1710962133213335300,12.182335205078125,-0.07620319724082947,0.9586484432220459,-1.5539953708648682
1710962133246668300,12.215668212890625,-0.3064926266670227,0.0331384651362896,-0.7277481555938721
1710962133280001300,12.249001220703125,-0.48722705245018005,-0.21387289464473724,0.4401918053627014
1710962133313334300,12.282334228515625,-0.24617144465446472,0.25052374601364136,0.8083800077438354
1710962133346667300,12.315667236328125,-0.5664844512939453,-0.834570050239563,0.9577321410179138
1710962133380000000,12.349,-0.6323032975196838,-0.13805148005485535,0.7317186594009399
1710962133413333000,12.3823330078125,-0.4446204602718353,-1.0188932418823242,0.18363595008850098
1710962133446666000,12.415666015625,-0.4159869849681854,0.4010975956916809,0.25800660252571106
1710962133479999000,12.4489990234375,0.6035934686660767,-0.16966283321380615,0.7046886682510376
1710962133513332000,12.48233203125,-0.0662769302725792,-0.4786751866340637,-0.30252209305763245
1710962133546665000,12.5156650390625,0.1429382562637329,-0.5863370299339294,-0.4411080777645111
1710962133579998000,12.548998046875,0.5170058608055115,0.5428904891014099,-0.7237012982368469
1710962133613331000,12.5823310546875,0.3555130958557129,0.1423274129629135,-0.4056025743484497
1710962133646664000,12.615663818359375,0.8163973689079285,0.9463551044464111,-0.8834378719329834
1710962133679997000,12.648996826171874,0.14011308550834656,0.5896202921867371,-0.22334103286266327
1710962133713330000,12.682329833984374,-0.744928240776062,-0.030160583555698395,0.954601526260376
1710962133746662700,12.71566259765625,-0.2799971103668213,-0.3139754831790924,0.8645015954971313
1710962133779995600,12.74899560546875,0.022754060104489326,-0.4083513915538788,0.3638359010219574
1710962133813328600,12.78232861328125,-0.15217731893062592,-0.29496288299560547,0.16408884525299072
1710962133846661600,12.81566162109375,-0.08559497445821762,-0.25647950172424316,0.29496288299560547
1710962133879994600,12.84899462890625,-0.23105297982692719,-0.26694026589393616,0.7626428008079529
1710962133913327600,12.88232763671875,-0.5780905485153198,-0.14393088221549988,1.0895224809646606
1710962133946660600,12.91566064453125,-0.5060869455337524,-0.1784437596797943,0.8798491358757019
1710962133979993600,12.94899365234375,-0.06711684167385101,0.24678228795528412,0.14881765842437744
1710962134013326600,12.98232666015625,0.04871506989002228,0.7150730490684509,-0.05031854286789894
1710962134046659600,13.01565966796875,0.09216158092021942,0.03718532621860504,0.22906772792339325
1710962134079992600,13.04899267578125,0.2205922156572342,0.11209046840667725,-0.10895988345146179
1710962134113325300,13.0823251953125,0.5701495409011841,0.3697916567325592,-0.16469968855381012
1710962134146658300,13.115658203125,0.4127036929130554,-0.630012571811676,-0.018707197159528732
1710962134179991300,13.1489912109375,-0.07757759839296341,-0.29481014609336853,-0.5082249045372009
1710962134213324300,13.18232421875,0.11476293206214905,0.19982340931892395,-0.44431501626968384
1710962134246657300,13.2156572265625,0.14408360421657562,-0.18065807223320007,0.07276718318462372
1710962134279990300,13.248990234375,-0.20135052502155304,-0.32779592275619507,0.6549809575080872
1710962134313323300,13.2823232421875,-0.14706148207187653,-0.6221479177474976,0.8932114243507385
1710962134346656300,13.31565625,0.444085955619812,-0.7488987445831299,0.1882936656475067
1710962134379989200,13.3489892578125,0.8385405540466309,-0.013285927474498749,-1.6006488800048828
1710962134413322200,13.382322265625,0.61970454454422,0.770965576171875,-2.2333338260650635
1710962134446655200,13.4156552734375,0.3769691288471222,-0.17859646677970886,0.01969982497394085
1710962134479988000,13.448988037109375,0.3988068997859955,-0.555565595626831,1.2510915994644165
1710962134513321000,13.482321044921875,0.08719844371080399,-0.05635065957903862,0.19654010236263275
1710962134546654000,13.515654052734375,-0.10682191699743271,-0.1501157134771347,-0.7081246972084045
1710962134579987000,13.548987060546875,0.00022906772210262716,-0.18348324298858643,-0.6592568755149841
1710962134613320000,13.58231982421875,0.05184566229581833,0.10842538625001907,-0.3513135313987732
1710962134646653000,13.61565283203125,-0.018707197159528732,0.23059484362602234,0.28427302837371826
1710962134679986000,13.64898583984375,-0.015042114071547985,-0.10376767814159393,0.8342646360397339
1710962134713319000,13.68231884765625,-0.004963133949786425,-0.12858334183692932,0.44332239031791687
1710962134746652000,13.71565185546875,-0.10231691598892212,0.10544750839471817,-0.08231166750192642
1710962134779985000,13.74898486328125,-0.08261708915233612,-0.2736595869064331,0.14828316867351532
1710962134813318000,13.78231787109375,0.1041494607925415,-0.3310028612613678,0.10140064358711243
1710962134846650600,13.815650634765625,0.1253764033317566,-0.07658497244119644,-0.36070531606674194
1710962134879983600,13.848983642578125,0.1844758689403534,0.007101099472492933,-0.5457920432090759
1710962134913316600,13.882316650390624,0.34810659289360046,0.4117874205112457,-0.44965994358062744
1710962134946649600,13.915649658203124,0.2796153426170349,0.8086854219436646,-0.5645755529403687
1710962134979982600,13.948982666015626,-0.2477749139070511,1.0151517391204834,-0.3406237065792084
1710962135013315600,13.982315673828126,-0.5732038021087646,0.4330907166004181,0.4494308829307556
1710962135046648600,14.015648681640625,-0.7267554998397827,-0.10063708573579788,1.129685640335083
1710962135079981600,14.048981689453125,-1.0563076734542847,-0.16004198789596558,1.0927294492721558
1710962135113314600,14.082314453125,-0.9634588360786438,-0.4641675651073456,0.9800280928611755
1710962135146647600,14.1156474609375,-0.4225535988807678,-0.10246963053941727,1.0649358034133911
1710962135179980500,14.14898046875,-0.8963419795036316,0.1524827480316162,0.3190149664878845
1710962135213313300,14.182313232421874,-1.6037794351577759,-0.40720605850219727,0.033291175961494446
1710962135246646300,14.215646240234374,-0.4802786707878113,-0.20761170983314514,0.5837408900260925
1710962135279979300,14.248979248046876,-0.2617480456829071,0.053830914199352264,0.2885489761829376
1710962135313312300,14.282312255859376,-0.29175591468811035,0.2662530541419983,0.3748311400413513
1710962135346645200,14.315645263671875,0.4698179066181183,0.32573428750038147,-0.11903885751962662
1710962135379978200,14.348978271484375,0.30244573950767517,0.353985995054245,-1.0356152057647705
1710962135413311200,14.382311279296875,0.11346487700939178,0.3685699701309204,-0.3029802441596985
1710962135446644200,14.415644287109375,0.09292513877153397,-0.10246963053941727,0.46157145500183105
1710962135479977200,14.448977294921875,-0.4214846193790436,-0.18989713490009308,-0.3754419982433319
1710962135513310200,14.482310302734374,-0.14072394371032715,-0.13263021409511566,-0.23807771503925323
1710962135546643200,14.515643310546874,0.3823140263557434,0.043981000781059265,-0.30481278896331787
1710962135579976000,14.548975830078126,0.20318306982517242,0.1808871477842331,-0.46546560525894165
1710962135613309000,14.582308837890626,0.1495048701763153,0.029778804630041122,0.1366770714521408
1710962135646642000,14.615641845703125,-0.13652436435222626,-0.07498150318861008,0.23708508908748627
1710962135679975000,14.648974853515625,-0.09689565002918243,-0.1916533261537552,0.31122666597366333
1710962135713308000,14.682307861328125,0.41026028990745544,0.3029802441596985,-0.44301697611808777
1710962135746641000,14.715640869140625,0.5571690797805786,0.7820371985435486,-1.1132690906524658
1710962135779974000,14.748973876953125,0.11529742181301117,0.5297572612762451,-0.2701472043991089
1710962135813307000,14.782306884765624,0.1301104724407196,0.11995512992143631,0.409420371055603
1710962135846639900,14.815639892578124,0.5064687132835388,0.32519981265068054,-0.027793550863862038
1710962135879972900,14.848972900390624,0.5797703862190247,0.5182275176048279,-0.3694098889827728
1710962135913305900,14.882305908203126,0.40903860330581665,0.6887302994728088,-0.35833826661109924
1710962135946638600,14.915638671875,0.4127036929130554,0.5460211038589478,-0.22166119515895844
1710962135979971600,14.9489716796875,0.1650814712047577,0.19913621246814728,0.1086544543504715
1710962136013304600,14.9823046875,-0.08933641016483307,-0.24052110314369202,0.6188646554946899
1710962136046637600,15.015637451171875,-0.19508934020996094,-0.38994961977005005,0.8057838678359985
1710962136079970600,15.048970458984375,-0.22586077451705933,-0.5076904296875,1.086391806602478
1710962136113303600,15.082303466796875,0.1333937644958496,-0.658111572265625,0.9410865306854248
1710962136146636500,15.115636474609374,0.445536732673645,-0.22066856920719147,0.06245913356542587
1710962136179969500,15.148969482421874,0.493946373462677,0.04856235533952713,-0.6251258254051208
1710962136213302500,15.182302490234376,0.3889569938182831,-0.19356222450733185,-0.4324798583984375
1710962136246635500,15.215635498046876,0.1507265567779541,-0.40552622079849243,0.19989976286888123
1710962136279968500,15.248968505859375,0.1346154659986496,-0.3164188861846924,0.4274403750896454
1710962136313301200,15.28230126953125,0.241742804646492,-0.1602710485458374,-0.027717193588614464
1710962136346634200,15.31563427734375,0.24304085969924927,-0.008246437646448612,-0.4957789182662964
1710962136379967200,15.34896728515625,0.22944949567317963,-0.06940752267837524,-0.49860408902168274
1710962136413300200,15.38230029296875,0.1865374743938446,-0.08948912471532822,-0.4136199355125427
1710962136446633200,15.41563330078125,0.08429691940546036,0.035505495965480804,-0.349251925945282
1710962136479966200,15.44896630859375,-0.047264307737350464,0.06261184066534042,-0.2026485800743103
1710962136513299200,15.48229931640625,-0.16050012409687042,-0.0794101431965828,-0.049554985016584396
1710962136546632200,15.515632080078126,-0.1524827480316162,-0.19982340931892395,0.1363716572523117
1710962136579965200,15.548965087890625,-0.06620056927204132,-0.2673983871936798,0.1432436853647232
1710962136613298200,15.582298095703125,-0.017180079594254494,-0.24304085969924927,-0.1330883502960205
1710962136646631200,15.615631103515625,-0.02023431472480297,-0.16996824741363525,-0.28221142292022705
1710962136679964000,15.6489638671875,-0.01695101149380207,-0.20570281147956848,-0.31504446268081665
1710962136713297000,15.682296875,-0.00519220158457756,-0.0680331140756607,-0.4291202127933502
1710962136746630000,15.7156298828125,0.02710634656250477,0.09170344471931458,-0.24548424780368805
1710962136779963000,15.748962890625,-0.00030542362947016954,0.06963659077882767,-0.04337015375494957
1710962136813295900,15.7822958984375,-0.11942064017057419,0.22601348161697388,0.11896250396966934
1710962136846628900,15.81562890625,-0.19928891956806183,0.03092414326965809,0.6596387028694153
1710962136879961900,15.8489619140625,-0.030695075169205666,0.025350160896778107,0.978424608707428
1710962136913294800,15.882294921875,0.07032378762960434,-0.2393757700920105,0.5029563903808594
1710962136946627800,15.9156279296875,-0.17080816626548767,0.004886778071522713,0.17538951337337494
1710962136979960800,15.9489609375,0.054518118500709534,-0.22486814856529236,0.24197186529636383
1710962137013293800,15.9822939453125,0.055892523378133774,-0.19440214335918427,-0.14110571146011353
1710962137046626600,16.01562646484375,0.1304158866405487,0.3303920030593872,-0.03924693539738655
1710962137079959600,16.04895947265625,0.04222481697797775,0.34543412923812866,-0.8923714756965637
1710962137113292500,16.08229248046875,-0.4908921420574188,0.07704310864210129,-1.6569231748580933
1710962137146625500,16.11562548828125,-0.39773792028427124,0.02076880633831024,0.8851176500320435
1710962137179958500,16.14895849609375,-0.3859791159629822,-0.38101598620414734,2.0632894039154053
1710962137213291500,16.18229150390625,-0.8839723467826843,0.07956285774707794,1.2488008737564087
1710962137246624500,16.21562451171875,-0.5897729992866516,-0.3901023268699646,1.417394757270813
1710962137279957500,16.24895751953125,-0.25380703806877136,-0.776157796382904,0.619170069694519
1710962137313290500,16.28229052734375,-0.15095563232898712,-0.3833066523075104,-0.5280774831771851
1710962137346623500,16.31562353515625,-0.0035887276753783226,-0.23555797338485718,-0.25945737957954407
1710962137379956500,16.34895654296875,-0.33596599102020264,-0.6382590532302856,0.7847860455513
1710962137413289200,16.382289306640626,-0.6415423154830933,-0.49921491742134094,0.8800781965255737
1710962137446622200,16.415622314453124,-0.232503741979599,-0.15599511563777924,0.3438306450843811
1710962137479955200,16.448955078125,0.015271181240677834,-0.06337540596723557,-0.21081866323947906
1710962137513288200,16.4822880859375,0.08093725889921188,0.19898349046707153,-0.683309018611908
1710962137546621200,16.51562109375,0.3328354060649872,0.23319093883037567,-0.7872294187545776
1710962137579954200,16.5489541015625,0.5741963982582092,0.2838912606239319,-1.1754227876663208
1710962137613287200,16.582287109375,0.6461237072944641,0.28305134177207947,-1.3334795236587524
1710962137646620200,16.6156201171875,0.6745280623435974,0.5573981404304504,-1.079290747642517
1710962137679953200,16.648953125,0.7221741676330566,0.6511631608009338,-0.7579087615013123
1710962137713286100,16.6822861328125,0.586489737033844,0.39178216457366943,-0.6290199756622314
1710962137746619100,16.715619140625,0.5064687132835388,0.2444152534008026,-0.49051034450531006
1710962137779951900,16.748951904296874,0.21715620160102844,0.1802763044834137,-0.6526139378547668
1710962137813284900,16.782284912109375,0.0552053228020668,0.09048175066709518,-0.5116609334945679
1710962137846617900,16.815617919921873,-0.04940227046608925,-0.1808871477842331,0.2688491642475128
1710962137879950800,16.848950927734375,-0.03649812191724777,-0.2582356929779053,0.8167791366577148
1710962137913283800,16.882283935546877,0.11147962510585785,-0.2599155008792877,0.7272900342941284
1710962137946616800,16.915616943359375,0.14400723576545715,0.06070294603705406,-0.0528382882475853
1710962137979949800,16.94894970703125,0.24075017869472504,0.3372640311717987,-0.7777612805366516
1710962138013282800,16.98228271484375,0.26854372024536133,0.4627167880535126,-0.6508577466011047
1710962138046615800,17.01561572265625,0.1889045089483261,0.27892813086509705,0.14225105941295624
1710962138079948800,17.04894873046875,-0.008933641016483307,0.03955236077308655,0.5661790370941162
1710962138113281800,17.08228173828125,-0.1325538605451584,-0.05512896552681923,0.45744824409484863
1710962138146614500,17.115614501953125,-0.09575030952692032,0.05062396824359894,0.2515927255153656
1710962138179947500,17.148947509765627,-0.05306735634803772,0.15034478902816772,-0.028633465990424156
1710962138213280500,17.182280517578125,-0.12400199472904205,0.2160872220993042,-0.0978882759809494
1710962138246613500,17.215613525390626,-0.1772984117269516,0.09735377877950668,0.16783028841018677
1710962138279946500,17.248946533203124,-0.1507265567779541,-0.04321744292974472,0.37200596928596497
1710962138313279500,17.282279541015626,-0.126216322183609,-0.04337015375494957,0.3271850645542145
1710962138346612500,17.315612548828124,-0.07337802648544312,0.03894151374697685,0.1172826737165451
1710962138379945500,17.348945556640626,-0.03229855000972748,0.04879142343997955,-0.10071343928575516
1710962138413278500,17.382278564453124,0.011911521665751934,0.08383878320455551,-0.17584764957427979
1710962138446611500,17.415611572265625,0.06788039952516556,0.10422581434249878,-0.1853157877922058
1710962138479944400,17.4489443359375,0.05512896552681923,0.1074327602982521,-0.2981698215007782
1710962138513277200,17.482277099609377,0.07963921129703522,0.10246963053941727,-0.43469417095184326
1710962138546610200,17.515610107421875,0.20990239083766937,0.1724879890680313,-0.49081575870513916
1710962138579943200,17.548943115234376,0.21051323413848877,-0.009849912486970425,-0.4446968138217926
1710962138613276200,17.582276123046874,0.04107947647571564,-0.0005344913806766272,-0.431334525346756
1710962138646609200,17.615609130859376,0.049860406666994095,-0.12606360018253326,-0.2399866133928299
1710962138679942100,17.648942138671874,0.08399149775505066,-0.4447731673717499,0.026190076023340225
1710962138713275100,17.682275146484375,0.0653606578707695,-0.29061058163642883,-0.057648710906505585
1710962138746608000,17.715608154296874,0.006032116711139679,-0.18340688943862915,-0.26365694403648376
1710962138779941000,17.748941162109375,-0.07398887723684311,-0.2283041626214981,-0.2530434727668762
1710962138813274000,17.782274169921877,0.03596363216638565,-0.12575818598270416,-0.3180987238883972
1710962138846607000,17.815607177734375,0.26548948884010315,0.34489962458610535,-0.4757736623287201
1710962138879939800,17.84893994140625,0.21425467729568481,0.2271588295698166,-0.5370874404907227
1710962138913272800,17.88227294921875,-0.007941014133393764,0.04940227046608925,-0.23777230083942413
1710962138946605800,17.915605712890624,-0.07322531193494797,0.06612421572208405,0.25625041127204895
1710962138979938800,17.948938720703126,-0.25983914732933044,-0.19455485045909882,0.458822637796402
1710962139013271800,17.982271728515624,-0.27656111121177673,-0.21509459614753723,0.3279486298561096
1710962139046604800,18.015604736328125,-0.09345962852239609,-0.25861746072769165,0.7324821949005127
1710962139079937800,18.048937744140623,-0.271903395652771,-0.30672168731689453,0.6385644674301147
1710962139113270800,18.082270751953125,-0.19684553146362305,0.21562908589839935,0.34848836064338684
1710962139146603800,18.115603759765627,0.23975755274295807,0.1366770714521408,0.4207974076271057
1710962139179936800,18.148936767578125,-0.1139993667602539,-0.19738002121448517,0.012751436792314053
1710962139213269800,18.182269775390626,0.050394900143146515,0.14110571146011353,-0.005726693198084831
1710962139246602500,18.2156025390625,0.36246147751808167,0.17806197702884674,-0.09109259396791458
1710962139279935500,18.248935546875,0.10666920244693756,0.08620581775903702,-0.2793098986148834
1710962139313268500,18.2822685546875,0.17363333702087402,0.1632489264011383,0.1934095174074173
1710962139346601500,18.3156015625,0.09964445978403091,0.040544986724853516,0.17584764957427979
1710962139379934500,18.3489345703125,-0.24166645109653473,-0.0331384651362896,0.20493926107883453
1710962139413267500,18.382267333984377,-0.2107423096895218,-0.1119377613067627,0.4240806996822357
1710962139446600400,18.415600341796875,-0.18218518793582916,-0.19646374881267548,0.35238251090049744
1710962139479933400,18.448933349609376,-0.2208212912082672,-0.28702184557914734,0.20814619958400726
1710962139513266400,18.482266357421874,-0.06253548711538315,-0.15202461183071136,-0.11804623156785965
1710962139546599400,18.515599365234376,-0.020997874438762665,-0.17157171666622162,-0.22250111401081085
1710962139579932400,18.548932373046874,-0.12636902928352356,-0.1916533261537552,0.011071606539189816
1710962139613265200,18.58226513671875,-0.05482354015111923,-0.04734066128730774,0.031000498682260513
1710962139646598100,18.61559814453125,-0.007559234742075205,0.05405998229980469,-0.11033428460359573
1710962139679931100,18.64893115234375,-0.16454698145389557,0.0023670331574976444,0.0016798300202935934
1710962139713264000,18.68226416015625,-0.18730103969573975,-0.2587701678276062,0.23739051818847656
1710962139746597000,18.71559716796875,0.07727217674255371,-0.1268271654844284,-0.16248537600040436
1710962139779930000,18.74893017578125,0.4551575779914856,0.22196662425994873,-0.3831539452075958
1710962139813263000,18.78226318359375,0.5924454927444458,0.03497100621461868,-0.2710634768009186
1710962139846596000,18.81559619140625,0.3080197274684906,-0.02764083817601204,-0.6820109486579895
1710962139879929000,18.84892919921875,0.2620534598827362,0.04161396995186806,-0.8346464037895203
1710962139913262000,18.882261962890624,0.3076379597187042,-0.12278030067682266,-0.7407286763191223
1710962139946595000,18.915594970703125,0.2184542566537857,0.0823880210518837,-0.4106420576572418
1710962139979927800,18.948927734375,0.11743538826704025,-0.021990500390529633,0.4345414638519287
1710962140013260800,18.9822607421875,-0.07307260483503342,-0.16050012409687042,0.9526926279067993
1710962140046593800,19.01559375,0.1453816443681717,-0.2501419484615326,0.46813806891441345
1710962140079926800,19.0489267578125,0.5084539651870728,0.02626643143594265,-0.9529981017112732
1710962140113259800,19.082259765625,0.4653128981590271,0.5666372179985046,-1.4968048334121704
1710962140146592800,19.1155927734375,0.1465269923210144,0.28366219997406006,-0.011529741808772087
1710962140179925800,19.14892578125,-0.17447324097156525,-0.32779592275619507,1.2526949644088745
1710962140213258800,19.1822587890625,-0.3539096415042877,-0.2516690790653229,0.7273663878440857
1710962140246591700,19.215591796875,-0.23418356478214264,-0.1313321590423584,-0.15683503448963165
1710962140279924700,19.2489248046875,-0.07482878863811493,-0.05741964280605316,-0.285647451877594
1710962140313257700,19.2822578125,-0.07963921129703522,-0.11796987801790237,0.13782241940498352
1710962140346590500,19.315590576171875,-0.18630841374397278,-0.2549523711204529,0.3885752260684967
1710962140379923500,19.34892333984375,-0.120871402323246,-0.16813570261001587,0.3336753249168396
1710962140413256400,19.38225634765625,0.031916771084070206,0.0009926267666742206,0.1796654462814331
1710962140446589400,19.41558935546875,0.08368607610464096,0.020005248486995697,0.07666133344173431
1710962140479922400,19.44892236328125,0.10338589549064636,-0.04497363045811653,0.03298575058579445
1710962140513255400,19.48225537109375,0.091932512819767,0.01901262067258358,-0.09284878522157669
1710962140546588400,19.51558837890625,0.07307260483503342,0.08887827396392822,-0.16859383881092072
1710962140579921400,19.54892138671875,0.018936265259981155,0.06673506647348404,-0.11239589750766754
1710962140613254400,19.58225439453125,-0.02504473738372326,0.03649812191724777,0.016874656081199646
1710962140646587400,19.61558740234375,-0.007711946498602629,0.11995512992143631,0.07918107509613037
1710962140679920400,19.64892041015625,0.010155336000025272,0.23296187818050385,0.08055548369884491
1710962140713253000,19.682253173828126,0.007711946498602629,0.1927986592054367,0.1533990204334259
1710962140746586000,19.715586181640624,-0.02229592576622963,0.18928629159927368,0.07421794533729553
1710962140779919000,19.748919189453126,-0.017867282032966614,0.2585411071777344,-0.07330167293548584
1710962140813252000,19.782252197265624,0.02764083817601204,0.28999972343444824,-0.09048175066709518
1710962140846585000,19.815585205078126,-0.005344913341104984,0.1882936656475067,-0.021837789565324783
1710962140879918000,19.84891796875,0.021150587126612663,0.22242476046085358,-0.12346750497817993
1710962140913251000,19.8822509765625,0.08880192041397095,0.19379130005836487,-0.32275640964508057
1710962140946584000,19.915583984375,0.04253023862838745,-0.014507622458040714,-0.3534514904022217
1710962140979917000,19.9489169921875,-0.035352785140275955,-0.025350160896778107,-0.26854372024536133
1710962141013250000,19.98225,0.018554486334323883,-0.3134410083293915,-0.03649812191724777
1710962141046583000,20.0155830078125,0.19058434665203094,-0.3239017724990845,-0.059175826609134674
1710962141079915800,20.048915771484374,0.2996205687522888,0.20646637678146362,-0.47676628828048706
1710962141113248800,20.082248779296876,0.2880908250808716,0.4073587656021118,-0.6698703765869141
1710962141146581800,20.115581787109374,0.16798299551010132,0.41743773221969604,-0.7144622206687927
1710962141179914800,20.148914794921875,-0.0558161698281765,0.06314633786678314,-1.0793671607971191
1710962141213247700,20.182247802734373,-0.039857782423496246,-0.02473931387066841,-0.6539883613586426
1710962141246580700,20.215580810546875,0.1524827480316162,0.13576079905033112,0.13957859575748444
1710962141279913700,20.248913818359377,-0.07360709458589554,0.08315158635377884,0.21379654109477997
1710962141313246700,20.282246826171875,-0.42339351773262024,-0.07085828483104706,0.23593975603580475
1710962141346579700,20.315579833984376,-0.10651648789644241,-0.18959172070026398,0.750654935836792
1710962141379912700,20.34891259765625,-0.10682191699743271,-0.3394020199775696,0.32672691345214844
1710962141413245700,20.38224560546875,-0.25716668367385864,-0.12033691257238388,-0.11186140775680542
1710962141446578400,20.415578369140626,-0.14698512852191925,-0.2987042963504791,0.6670452356338501
1710962141479911400,20.448911376953124,-0.1730988472700119,-0.27152159810066223,0.6463527679443359
1710962141513244400,20.482244384765625,-0.1904316395521164,0.14515258371829987,0.11934428662061691
1710962141546577400,20.515577392578123,-0.2572430372238159,-0.11247225105762482,0.4733302593231201
1710962141579910400,20.548910400390625,-0.45950984954833984,-0.3384857475757599,0.6536829471588135
1710962141613243400,20.582243408203126,-0.1782146841287613,0.05031854286789894,0.3561239540576935
1710962141646576400,20.615576416015625,0.016492875292897224,0.21868331730365753,-0.11888615041971207
1710962141679909400,20.648909423828126,-0.009391776286065578,0.02489202655851841,-0.11331216990947723
1710962141713242400,20.682242431640624,0.03306210786104202,0.1507265567779541,0.08765657991170883
1710962141746575400,20.715575439453126,-0.267169326543808,-0.07215633243322372,0.12079504877328873
1710962141779908400,20.748908447265624,-0.2734304964542389,-0.2337254285812378,0.20585553348064423
1710962141813241000,20.782240966796873,0.05741964280605316,-0.237008735537529,0.1611873209476471
1710962141846574000,20.815573974609375,0.050394900143146515,-0.31359371542930603,-0.17836740612983704
1710962141879907000,20.848906982421877,0.18936264514923096,-0.32603973150253296,-0.29381752014160156
1710962141913240000,20.882239990234375,0.4618005156517029,-0.17355698347091675,-0.37620556354522705
1710962141946573000,20.915572998046876,0.29083964228630066,-0.059710320085287094,-0.34184539318084717
1710962141979906000,20.948906005859374,0.09399411827325821,0.031229566782712936,0.07154548168182373
1710962142013239000,20.982239013671876,0.043293800204992294,0.1289651244878769,0.4340069890022278
1710962142046572000,21.015572021484374,0.16401249170303345,0.1524827480316162,0.2149418741464615
1710962142079905000,21.048905029296876,0.2615189850330353,0.30702710151672363,-0.05619794875383377
1710962142113238000,21.082238037109374,0.6623111367225647,0.17233528196811676,-0.018096350133419037
1710962142146571000,21.115571044921875,1.087613582611084,0.2954973578453064,-0.4077405333518982
1710962142179903700,21.14890380859375,0.8153283596038818,0.7957049012184143,-0.4629458785057068
1710962142213236700,21.18223681640625,0.4685961902141571,0.25082916021347046,0.06490252166986465
1710962142246569700,21.21556982421875,0.26900187134742737,-0.13660071790218353,0.04291202127933502
1710962142279902700,21.24890283203125,0.08422056585550308,-0.010308047756552696,-0.1107160672545433
1710962142313235700,21.282235595703124,-0.17187714576721191,-0.2354816198348999,0.15355172753334045
1710962142346568700,21.315568603515626,-0.21853061020374298,-0.3765873312950134,0.7860077023506165
1710962142379901700,21.348901611328124,0.26464956998825073,-0.23418356478214264,0.8306758999824524
1710962142413234700,21.382234619140625,0.8061656951904297,0.08574768155813217,-0.48569992184638977
1710962142446567700,21.415567626953123,0.8037986159324646,0.7035433053970337,-1.2738455533981323
1710962142479900700,21.448900634765625,0.5702258944511414,0.3023693859577179,-0.048638712614774704
1710962142513233700,21.482233642578127,0.23479440808296204,-0.2011978179216385,0.7966212034225464
1710962142546566400,21.51556640625,-0.04871506989002228,0.11010521650314331,0.16317257285118103
1710962142579899400,21.5488994140625,0.15981291234493256,0.18966807425022125,-0.31557896733283997
1710962142613232400,21.582232421875,0.25479966402053833,0.1053711548447609,-0.3242071866989136
1710962142646565400,21.6155654296875,0.026877280324697495,0.1626380831003189,-0.15805672109127045
1710962142679898400,21.6488984375,-0.1304158866405487,0.10842538625001907,0.19226416945457458
1710962142713231400,21.6822314453125,-0.15660595893859863,0.04604261368513107,0.42095011472702026
1710962142746564400,21.715564453125,-0.10796725004911423,0.1325538605451584,0.2360924631357193
1710962142779897300,21.7488974609375,-0.06665870547294617,0.16912832856178284,0.02748812735080719
1710962142813230300,21.782230224609375,-0.049860406666994095,0.11155597865581512,0.14996300637722015
1710962142846563300,21.815563232421876,-0.07246175408363342,0.08437328040599823,0.15423893928527832
1710962142879896300,21.848896240234374,-0.1501157134771347,-0.11835165321826935,-0.009009997360408306
1710962142913229000,21.88222900390625,-0.2851129472255707,-0.3689517378807068,-0.033978380262851715
1710962142946562000,21.91556201171875,-0.30992862582206726,-0.9636878967285156,0.2596100866794586
1710962142979895000,21.94889501953125,-0.256708562374115,-0.9232192635536194,0.3596363365650177
1710962143013228000,21.98222802734375,-0.17157171666622162,-0.36841726303100586,-0.18691925704479218
1710962143046561000,22.01556103515625,-0.27442312240600586,-0.1940203607082367,-0.3568875193595886
1710962143079894000,22.04889404296875,-0.4840964674949646,-0.33329352736473083,0.1632489264011383
1710962143113227000,22.08222705078125,-0.34428879618644714,-0.4017847776412964,0.3010713458061218
1710962143146560000,22.11556005859375,-0.1940203607082367,-0.12323843687772751,-0.22303560376167297
1710962143179893000,22.14889306640625,-0.18798823654651642,-0.24693500995635986,-0.6077166795730591
1710962143213226000,22.18222607421875,-0.18737739324569702,-0.04680617153644562,-0.26907822489738464
1710962143246559000,22.21555908203125,-0.18317782878875732,-0.041384901851415634,0.06620056927204132
1710962143279891700,22.2488916015625,-0.3546731770038605,0.21501824259757996,0.02733541466295719
1710962143313224700,22.282224609375,-0.4065952003002167,0.12003148347139359,0.4667636752128601
1710962143346557700,22.3155576171875,-0.4247679114341736,-0.10170606523752213,0.23006035387516022
1710962143379890700,22.348890625,-0.46004435420036316,0.12033691257238388,0.381474107503891
1710962143413223700,22.3822236328125,-0.3277195692062378,0.14629791676998138,0.4515688419342041
1710962143446556700,22.415556640625,-0.29862794280052185,0.16576866805553436,0.12659808993339539
1710962143479889700,22.4488896484375,-0.09338327497243881,-0.16317257285118103,0.5632011890411377
1710962143513222700,22.48222265625,0.05405998229980469,-0.1152210608124733,0.4943281412124634
1710962143546555600,22.5155556640625,0.12392564117908478,0.3626142144203186,-0.03787253051996231
1710962143579888600,22.548888671875,0.2313583940267563,0.44546034932136536,-0.1533990204334259
1710962143613221600,22.5822216796875,0.1325538605451584,0.32275640964508057,0.25953373312950134
1710962143646554400,22.615554443359375,-0.16699036955833435,0.15217731893062592,0.36154523491859436
1710962143679887400,22.648887451171873,-0.20020519196987152,0.08498412370681763,0.16584503650665283
1710962143713220400,22.682220458984375,-0.03764346241950989,-0.04085041210055351,0.34932827949523926
1710962143746553300,22.71555322265625,-0.006642963737249374,-0.3367295563220978,0.366279274225235
1710962143779886300,22.74888623046875,0.1910424828529358,-0.24372805655002594,-0.23028941452503204
1710962143813219300,22.78221923828125,0.5198310017585754,-0.023593975231051445,-0.4656183123588562
1710962143846552300,22.81555224609375,0.5992411375045776,-0.2226538211107254,-0.149199441075325
1710962143879885300,22.84888525390625,0.6597914099693298,-0.23235101997852325,-0.3151971995830536
1710962143913218300,22.88221826171875,0.8681666851043701,0.25922831892967224,-0.6655181050300598
1710962143946551300,22.91555126953125,0.9789590835571289,0.19394400715827942,-0.05856497958302498
1710962143979884300,22.94888427734375,0.7760050892829895,0.0784938707947731,0.10246963053941727
1710962144013217000,22.982217041015623,0.6739935874938965,0.13263021409511566,0.14332003891468048
1710962144046550000,23.015550048828125,0.7251520752906799,-0.024968381971120834,0.5622085332870483
1710962144079883000,23.048883056640626,0.7500441074371338,-0.3904077410697937,0.5605286955833435
1710962144113216000,23.082216064453124,0.7628718614578247,-0.4933355152606964,-0.07024743407964706
1710962144146549000,23.115549072265626,0.7391251921653748,-0.4372139275074005,-0.5151733160018921
1710962144179882000,23.148882080078124,0.6599441170692444,-0.8603020310401917,-0.15859122574329376
1710962144213215000,23.182215087890626,0.4858526289463043,-0.9606336951255798,-0.3000023663043976
1710962144246548000,23.2155478515625,0.21853061020374298,-0.878703773021698,-0.3361186981201172
1710962144279881000,23.248880859375,0.17264071106910706,-1.2171895503997803,0.2677038013935089
1710962144313214000,23.2822138671875,0.30252209305763245,-1.1925265789031982,0.4908921420574188
1710962144346547000,23.315546875,0.4706578254699707,-0.9618553519248962,0.208298921585083
1710962144379879700,23.348879638671875,0.5538857579231262,-0.4485909640789032,-0.15347537398338318
1710962144413212700,23.382212646484376,0.5217399001121521,-0.23685602843761444,-0.16424155235290527
1710962144446545700,23.415545654296874,0.3674246370792389,-0.1680593490600586,-0.08261708915233612
1710962144479878700,23.448878662109376,0.16637952625751495,-0.0761268362402916,-0.03474193811416626
1710962144513211600,23.482211669921874,-0.016721943393349648,-0.02229592576622963,0.1369825005531311
1710962144546544600,23.515544677734376,-0.08742751181125641,-0.2566322088241577,0.35948359966278076
1710962144579877600,23.548877685546874,-0.1250709742307663,-0.20852798223495483,0.32726141810417175
1710962144613210600,23.582210693359375,-0.03649812191724777,0.042606595903635025,0.047646086663007736
1710962144646543600,23.615543701171877,0.12522368133068085,0.28098973631858826,-0.38666632771492004
1710962144679876600,23.648876708984375,0.12667444348335266,0.5241069197654724,-0.7963157296180725
1710962144713209600,23.682209716796876,0.13545538485050201,0.2985515892505646,-0.8929060101509094
1710962144746542300,23.715542236328126,0.12690351903438568,0.4488963782787323,-0.6684959530830383
1710962144779875300,23.748875244140624,0.523725152015686,0.679872989654541,-0.7096518278121948
1710962144813208300,23.782208251953126,1.057452917098999,0.3988068997859955,-0.838922381401062
1710962144846541300,23.815541259765624,1.1822948455810547,0.8118160367012024,-0.7879166007041931
1710962144879874300,23.848874267578125,1.1607625484466553,1.5820180177688599,-0.5146388411521912
1710962144913207300,23.882207275390623,1.3069076538085938,1.5241402387619019,-0.055892523378133774
1710962144946540300,23.915540283203125,1.3039298057556152,0.894738495349884,0.4587462842464447
1710962144979873300,23.948873291015627,1.2039035558700562,1.3156123161315918,0.7851678133010864
1710962145013206300,23.982206298828125,1.3685269355773926,1.6455461978912354,0.7898254990577698
1710962145046539300,24.015539306640626,1.6154619455337524,1.4546563625335693,0.9491803050041199
1710962145079872300,24.048872314453124,1.2284138202667236,0.7285880446434021,1.3297381401062012
1710962145113205000,24.082205078125,0.8183062672615051,0.4429406225681305,1.297668695449829
1710962145146538000,24.1155380859375,0.8283088803291321,0.2586938142776489,0.9591829180717468
1710962145179871000,24.14887109375,0.9309312105178833,-0.04367557913064957,0.3701734244823456
1710962145213204000,24.182203857421875,1.0667684078216553,0.02107422985136509,-0.15622419118881226
1710962145246537000,24.215536865234377,1.1964970827102661,0.8332720398902893,-0.5437304377555847
1710962145279870000,24.248869873046875,0.7766159176826477,0.45645561814308167,-0.43232715129852295
1710962145313203000,24.282202880859376,0.17928366363048553,0.46577104926109314,-0.05199837312102318
1710962145346536000,24.315535888671874,0.13064496219158173,0.41743773221969604,0.1471378356218338
1710962145379869000,24.348868896484376,0.07597412914037704,0.09231429547071457,0.17531315982341766
1710962145413202000,24.382201904296874,0.06154286116361618,-0.20333577692508698,-0.3551313281059265
1710962145446535000,24.415534912109376,0.27953898906707764,-0.1871483325958252,-0.48547086119651794
1710962145479867600,24.44886767578125,0.28366219997406006,-0.043981000781059265,-0.6245149374008179
1710962145513200600,24.48220068359375,0.288930743932724,0.29053422808647156,-0.7085828185081482
1710962145546533600,24.51553369140625,0.38009971380233765,0.5404471158981323,-0.5180748105049133
1710962145579866600,24.54886669921875,0.3739148676395416,-0.034665580838918686,-0.1459924876689911
1710962145613199600,24.58219970703125,-0.06688777357339859,-1.6095061302185059,0.22540263831615448
1710962145646532600,24.61553271484375,-0.7258392572402954,-1.8279603719711304,0.5219689607620239
1710962145679865600,24.648865478515624,-1.0487483739852905,-0.0984991192817688,0.7033905982971191
1710962145713198600,24.682198486328126,-1.0353097915649414,0.6958313584327698,0.5898494124412537
1710962145746531600,24.715531494140624,-1.1925265789031982,0.2486148327589035,0.13866232335567474
1710962145779864600,24.748864501953125,-1.0245435237884521,0.056808795779943466,0.040697697550058365
1710962145813197600,24.782197509765624,-0.31588438153266907,-0.041232191026210785,-0.13530266284942627
1710962145846530300,24.8155302734375,-0.05428905040025711,-0.42064470052719116,-0.4435514807701111
1710962145879863300,24.84886328125,0.008399149402976036,-0.49623703956604004,-0.6780404448509216
1710962145913196300,24.8821962890625,0.5577035546302795,-0.3184804916381836,-0.6612421870231628
1710962145946529300,24.915529296875,0.9745304584503174,0.4488963782787323,-0.5381564497947693
1710962145979862300,24.9488623046875,1.1580137014389038,0.6269583702087402,-0.859767496585846
1710962146013195300,24.9821953125,0.7342383861541748,-0.033596597611904144,-1.0825740098953247
1710962146046528300,25.0155283203125,0.3262687921524048,-1.2488008737564087,-0.8373188972473145
1710962146079861200,25.048861328125,0.6756734251976013,-0.7783721089363098,-0.39353835582733154
1710962146113194200,25.0821943359375,0.8457180261611938,-0.3676536977291107,0.16286714375019073
1710962146146527200,25.11552734375,0.8213604688644409,-0.7515711784362793,0.30847787857055664
1710962146179860200,25.148860107421875,0.9611681699752808,-0.554649293422699,0.27205610275268555
1710962146213193000,25.18219287109375,1.2880477905273438,0.20493926107883453,0.5113555192947388
1710962146246526000,25.21552587890625,0.4722612798213959,-0.5026509165763855,0.21982865035533905
1710962146279859000,25.24885888671875,-0.3551313281059265,-1.309122085571289,-0.40186113119125366
1710962146313192000,25.28219189453125,-0.0004581354442052543,-0.8848885893821716,-0.0019088976550847292
1710962146346525000,25.31552490234375,0.3255815804004669,-0.08170082420110703,-0.030847785994410515
1710962146379858000,25.34885791015625,0.2897706627845764,0.2522799074649811,-0.22250111401081085
1710962146413191000,25.38219091796875,0.1585148572921753,0.03871244564652443,-0.2651077210903168
1710962146446524000,25.41552392578125,-0.054365407675504684,-0.1644706279039383,-0.3035147190093994
1710962146479857000,25.44885693359375,-0.21112407743930817,-0.07742489129304886,0.04756972938776016
1710962146513190000,25.48218994140625,-0.30305659770965576,0.07383616268634796,0.25556322932243347
1710962146546523000,25.51552294921875,-0.14629791676998138,0.0749051421880722,0.16134002804756165
1710962146579855600,25.548855712890624,-0.027946261689066887,0.2964136302471161,0.10621106624603271
1710962146613188600,25.582188720703126,-0.06543701142072678,0.43774840235710144,0.027029991149902344
1710962146646521600,25.615521484375,-0.15889663994312286,0.5980958342552185,0.007177455350756645
1710962146679854600,25.6488544921875,-0.08910734206438065,0.8105943202972412,0.18959172070026398
1710962146713187600,25.6821875,-0.09842276573181152,0.7162947654724121,0.45706647634506226
1710962146746520600,25.7155205078125,-0.3208475112915039,0.634899377822876,0.39979952573776245
1710962146779853600,25.748853515625,-0.365286648273468,0.765238881111145,0.45416492223739624
1710962146813186600,25.7821865234375,-0.5554128885269165,0.5249468684196472,0.5617504119873047
1710962146846519600,25.81551953125,-0.6730009913444519,0.5248705148696899,0.40453359484672546
1710962146879852500,25.8488525390625,-0.4196520745754242,0.7896727919578552,0.1808871477842331
1710962146913185500,25.882185546875,-0.3062635362148285,0.3755183517932892,0.2852656841278076
1710962146946518500,25.9155185546875,-0.3312319219112396,0.004963133949786425,0.6370373368263245
1710962146979851300,25.948851318359374,-0.26877278089523315,0.31412819027900696,0.34757208824157715
1710962147013184300,25.982184326171875,0.2728196680545807,0.6450546979904175,0.18493400514125824
1710962147046517200,26.015517333984373,0.319320410490036,0.022906772792339325,0.09376505762338638
1710962147079850200,26.048850341796875,0.6132143139839172,-0.08903098851442337,-0.217537984251976
1710962147113183200,26.082183349609377,0.8849649429321289,0.36070531606674194,-0.07421794533729553
1710962147146516200,26.11551611328125,0.4841728210449219,-0.032756682485342026,0.11705360561609268
1710962147179849200,26.14884912109375,0.5264739990234375,-0.022219568490982056,0.1993652731180191
1710962147213182200,26.18218212890625,0.50685054063797,0.48791423439979553,-0.017867282032966614
1710962147246515200,26.21551513671875,0.009315420873463154,0.3965925872325897,-0.1949366331100464
1710962147279848200,26.24884814453125,-0.18867544829845428,0.14041851460933685,0.37979426980018616
1710962147313181200,26.28218115234375,-0.30580541491508484,0.13507360219955444,0.8379297256469727
1710962147346514000,26.315513916015625,-0.4152234196662903,0.010537114925682545,0.6684959530830383
1710962147379847000,26.348846923828123,-0.09559759497642517,0.5997756719589233,0.18760646879673004
1710962147413180000,26.382179931640625,-0.057648710906505585,0.6433748602867126,-0.01038440316915512
1710962147446513000,26.415512939453127,-0.04199574887752533,0.45973891019821167,0.0016034740256145597
1710962147479846000,26.448845947265625,-0.44301697611808777,-0.0620773509144783,-0.007406522985547781
1710962147513179000,26.482178955078126,-0.7605048418045044,-0.36246147751808167,0.10498937219381332
1710962147546512000,26.515511962890624,-0.8658760190010071,-0.19226416945457458,-0.28938889503479004
1710962147579844900,26.548844970703126,-0.8184589743614197,-0.3208475112915039,-0.3985014855861664
1710962147613177900,26.582177734375,-1.181836724281311,-0.8262472748756409,0.012904148548841476
1710962147646510800,26.6155107421875,-1.876293659210205,-0.9090170860290527,0.03145863488316536
1710962147679843800,26.64884375,-2.022057056427002,-0.4957789182662964,-0.2858765125274658
1710962147713176600,26.682176513671877,-2.047712802886963,-0.5589252710342407,-0.11598462611436844
1710962147746509600,26.715509521484375,-1.809635043144226,-0.34665581583976746,-0.018554486334323883
1710962147779842600,26.748842529296876,-1.7680974006652832,-1.1275477409362793,0.19592925906181335
1710962147813175600,26.782175537109374,-1.5944640636444092,-0.42881476879119873,0.6401679515838623
1710962147846508500,26.815508544921876,-1.2152042388916016,0.18218518793582916,0.755770742893219
1710962147879841500,26.848841552734374,-0.7333984971046448,0.5644991993904114,0.4196520745754242
1710962147913174500,26.882174560546876,-0.47355934977531433,1.0095014572143555,0.7359945774078369
1710962147946507500,26.915507568359374,-0.9629243612289429,-0.8536590337753296,1.5355936288833618
1710962147979840500,26.948840576171875,-0.7442410588264465,-2.490882396697998,2.0092294216156006
1710962148013173500,26.982173583984373,-0.6223006248474121,-1.0090433359146118,0.9561286568641663
1710962148046506500,27.015506591796875,-0.36696648597717285,0.30038413405418396,-0.6245149374008179
1710962148079839200,27.048839111328125,0.19913621246814728,-0.023212196305394173,-0.6130616068840027
1710962148113172200,27.082172119140626,0.15477342903614044,-0.4130091071128845,-0.11178504675626755
1710962148146505200,27.115505126953124,-0.21417832374572754,-0.10979979485273361,-0.059557609260082245
1710962148179838200,27.148838134765626,-0.14423631131649017,-0.07559234648942947,-0.042759306728839874
1710962148213171200,27.182171142578124,-0.17447324097156525,-0.14164020121097565,0.020157959312200546
1710962148246504200,27.215504150390625,-0.4274403750896454,-0.20196136832237244,0.3602471649646759
1710962148279837200,27.248837158203123,-0.252432644367218,-0.20845162868499756,0.7888329029083252
1710962148313170200,27.282170166015625,0.010918894782662392,0.08254073560237885,0.8411366939544678
1710962148346503200,27.315503173828127,-0.04909684881567955,-0.10880716890096664,0.6620057225227356
1710962148379836200,27.348836181640625,-0.14049486815929413,0.10575293004512787,0.2113531529903412
1710962148413169200,27.382169189453126,-0.2124984860420227,0.149199441075325,-0.10697462409734726
1710962148446502000,27.415501953125,-0.30733251571655273,-0.043446511030197144,0.2432699203491211
1710962148479835000,27.4488349609375,-0.14606885612010956,-0.09895725548267365,0.3591018319129944
1710962148513168000,27.48216796875,0.12270393967628479,0.15828579664230347,0.008704573847353458
1710962148546500900,27.5155009765625,0.30099499225616455,-0.0029778804164379835,-0.16050012409687042
1710962148579833900,27.548833740234375,0.36482852697372437,0.19722731411457062,-0.3992650508880615
1710962148613166800,27.582166748046873,0.3997231721878052,0.2786990702152252,-0.35826191306114197
1710962148646499800,27.615499755859375,0.20524467527866364,-0.030160583555698395,-0.2638860046863556
1710962148679832800,27.648832763671876,0.0922379344701767,0.04443913698196411,-0.2887016832828522
1710962148713165800,27.682165771484375,0.0525328628718853,-0.02504473738372326,-0.12911784648895264
1710962148746498800,27.715498779296876,-0.014125842601060867,-0.24869118630886078,0.021685076877474785
1710962148779831800,27.748831787109374,-0.06085565686225891,0.012369656935334206,-0.12407834827899933
1710962148813164500,27.78216455078125,-0.0034360159188508987,-0.03833066672086716,-0.07681404054164886
1710962148846497500,27.81549755859375,-0.025502873584628105,-0.17645850777626038,0.04650074616074562
1710962148879830500,27.84883056640625,0.021990500390529633,0.035505495965480804,-0.08429691940546036
1710962148913163500,27.88216357421875,-0.019318044185638428,0.0778830274939537,-0.2516690790653229
1710962148946496500,27.91549658203125,-0.1244601309299469,0.0659715011715889,-0.24670593440532684
1710962148979829500,27.94882958984375,-0.0880383625626564,0.17096087336540222,-0.2002815455198288
1710962149013162500,27.98216259765625,-0.02664821222424507,0.06635328382253647,-0.052990999072790146
1710962149046495500,28.01549560546875,-0.03405473381280899,0.0587940476834774,0.056274302303791046
1710962149079828500,28.048828369140626,-0.020692450925707817,0.15622419118881226,0.0680331140756607
1710962149113161500,28.082161376953124,-0.056427016854286194,0.062993623316288,0.07337802648544312
1710962149146494500,28.115494384765626,-0.03436015918850899,-0.188599094748497,0.052456509321928024
1710962149179827200,28.1488271484375,0.10720369219779968,-0.11621369421482086,-0.24846212565898895
1710962149213160200,28.18216015625,0.2906869351863861,0.10300412029027939,-0.7350783348083496
1710962149246493200,28.2154931640625,0.17172443866729736,0.12270393967628479,-1.077534556388855
1710962149279826200,28.248826171875,0.16882291436195374,0.3190149664878845,-0.5926745533943176
1710962149313159200,28.2821591796875,0.3728458881378174,-0.1847812980413437,0.2515163719654083
1710962149346492200,28.3154921875,0.16699036955833435,-0.42423340678215027,0.1486649513244629
1710962149379825200,28.3488251953125,0.1080436110496521,0.40033403038978577,-0.6212316751480103
1710962149413158100,28.382158203125,0.36093437671661377,0.2113531529903412,-0.3907131850719452
1710962149446491100,28.4154912109375,0.36963894963264465,-0.22479179501533508,0.09681928902864456
1710962149479824100,28.44882421875,0.31260108947753906,0.5118136405944824,-0.16103461384773254
1710962149513157000,28.4821572265625,0.3217637836933136,0.45439401268959045,0.2357870489358902
1710962149546489900,28.51548974609375,-0.1429382562637329,-0.5106683373451233,0.5732801556587219
1710962149579822800,28.54882275390625,0.025655584409832954,0.44003909826278687,0.31473904848098755
1710962149613155800,28.58215576171875,0.7778376340866089,0.5440358519554138,0.5525113344192505
1710962149646488800,28.61548876953125,0.4772244095802307,0.1525591015815735,0.33527877926826477
1710962149679821800,28.64882177734375,0.4462239146232605,1.3871577978134155,-0.6494069695472717
1710962149713154800,28.68215478515625,0.9588011503219604,0.9545251727104187,-0.18913358449935913
1710962149746487800,28.71548779296875,0.5110501050949097,0.394225537776947,-0.2160872220993042
1710962149779820800,28.74882080078125,0.3219928741455078,0.6374191045761108,-0.49226653575897217
1710962149813153800,28.78215380859375,0.3697916567325592,0.37773266434669495,0.2286095917224884
1710962149846486800,28.81548681640625,0.40850409865379333,0.0021379655227065086,1.0844066143035889
1710962149879819800,28.84881982421875,0.5858024954795837,0.2710634768009186,0.9898016452789307
1710962149913152500,28.882152587890626,0.050394900143146515,0.436068594455719,0.4688252806663513
1710962149946485500,28.915485595703124,-0.2712925374507904,-0.13087402284145355,0.3501681983470917
1710962149979818500,28.948818603515626,-0.0420721061527729,-0.06459710001945496,0.35436776280403137
1710962150013151500,28.9821513671875,0.12140589207410812,-0.07528692483901978,-0.391934871673584
1710962150046484500,29.015484375,0.20066332817077637,-0.21028417348861694,-0.33764582872390747
1710962150079817500,29.0488173828125,0.1540098637342453,-0.4158342778682709,-0.21524730324745178
1710962150113150500,29.082150390625,-0.1784437596797943,-0.3838411569595337,-0.6835380792617798
1710962150146483500,29.1154833984375,-0.1510319858789444,-0.3762819170951843,-0.48157671093940735
1710962150179816400,29.14881640625,0.2337254285812378,-0.5933617353439331,-0.2615189850330353
1710962150213149400,29.1821494140625,0.20127417147159576,-0.37292224168777466,-0.3793361485004425
1710962150246482400,29.215482421875,-0.48791423439979553,-0.27197974920272827,-0.6181010603904724
1710962150279815200,29.248815185546874,-1.0909732580184937,-0.29710084199905396,-0.2579302489757538
1710962150313148200,29.282148193359376,-0.9700254201889038,-0.5995466113090515,0.9629243612289429
1710962150346481200,29.315481201171874,-0.7430956959724426,-1.164351224899292,1.3036243915557861
1710962150379814100,29.348814208984376,-0.5235724449157715,-0.3506263196468353,0.07979192584753036
1710962150413147100,29.382147216796874,-0.14461809396743774,0.10529479384422302,-0.7500441074371338
1710962150446480100,29.415480224609375,-0.10750912129878998,0.1865374743938446,-1.0046147108078003
1710962150479813000,29.448813232421877,-0.587940514087677,0.43805384635925293,-0.5408288836479187
1710962150513146000,29.48214599609375,-0.7417212724685669,0.029778804630041122,0.7004891037940979
1710962150546479000,29.51547900390625,-0.653835654258728,-0.3309265077114105,1.0627979040145874
1710962150579812000,29.54881201171875,-0.6362738013267517,-0.24525517225265503,0.4841728210449219
1710962150613145000,29.58214501953125,-0.4191175699234009,-0.20127417147159576,0.07001836597919464
1710962150646477800,29.615477783203126,-0.36368319392204285,-0.36062896251678467,-0.03145863488316536
1710962150679810800,29.648810791015624,-0.2121930718421936,-0.08162446320056915,-0.40063944458961487
1710962150713143800,29.682143798828125,0.08628217875957489,0.2828986346721649,-0.39773792028427124
1710962150746476800,29.715476806640623,0.20157960057258606,-0.5716766715049744,0.5291464328765869
1710962150779809800,29.748809814453125,0.03733803704380989,-0.2065427303314209,0.39949411153793335
1710962150813142800,29.782142822265627,0.13484452664852142,0.24586601555347443,-0.813648521900177
1710962150846475800,29.815475830078125,0.10308047384023666,0.6956786513328552,-1.4042614698410034
1710962150879808800,29.848808837890626,0.06184828653931618,0.46248772740364075,-0.043446511030197144
1710962150913141800,29.882141845703124,-0.2667875289916992,-0.9840749502182007,1.3842562437057495
1710962150946474800,29.915474853515626,-0.34276166558265686,-0.11949699372053146,0.5859552621841431
1710962150979807700,29.948807861328124,-0.13980767130851746,-0.008551862090826035,-0.5188384056091309
1710962151013140500,29.982140380859374,-0.08483141660690308,0.22647161781787872,-1.0212602615356445
1710962151046473500,30.015473388671875,0.10071343928575516,0.2877090573310852,-0.36811181902885437
1710962151079806500,30.048806396484373,0.12293300777673721,-0.3587964177131653,0.32191649079322815
1710962151113139500,30.082139404296875,-0.006719320081174374,-0.13988402485847473,0.010995250195264816
1710962151146472400,30.115472412109376,0.07307260483503342,0.05925218388438225,-0.1916533261537552
1710962151179805400,30.148805419921874,0.05169294774532318,-0.05535803362727165,-0.10605835169553757
1710962151213138400,30.182138427734376,0.09781191498041153,-0.05993938818573952,-0.009773556143045425
1710962151246471400,30.215471435546874,0.06688777357339859,0.023288551717996597,-0.002061609411612153
1710962151279804400,30.248804443359376,0.03817795217037201,0.013667707331478596,-0.004657710436731577
1710962151313137400,30.282137451171874,0.053525492548942566,0.045889899134635925,0.12766708433628082
1710962151346470400,30.315470458984375,0.014813045971095562,0.050547610968351364,0.02870982140302658
1710962151379803100,30.34880322265625,-0.02229592576622963,0.008170082233846188,-0.039857782423496246
1710962151413136100,30.38213623046875,0.0749051421880722,0.06406260281801224,-0.012675080448389053
1710962151446469000,30.41546923828125,0.0006108472589403391,0.057496000081300735,-0.016798298805952072
1710962151479802000,30.448802001953126,-0.02748812735080719,-0.10590564459562302,0.047798797488212585
1710962151513135000,30.482135009765624,0.018630841746926308,-0.13545538485050201,-0.10789089649915695
1710962151546468000,30.515468017578126,0.042453885078430176,0.1498102843761444,-0.4023192822933197
1710962151579801000,30.548801025390624,0.06810946762561798,-0.08689302206039429,-0.45950984954833984
1710962151613134000,30.582134033203126,0.03229855000972748,-0.04352286830544472,-0.5861079692840576
1710962151646467000,30.615467041015624,-0.17118994891643524,-0.17348061501979828,-0.3539096415042877
1710962151679800000,30.648800048828125,-0.7607339024543762,-0.6683432459831238,-0.15912571549415588
1710962151713133000,30.682133056640627,-0.2262425571680069,-0.16752485930919647,0.06933116167783737
1710962151746465800,30.7154658203125,0.6711684465408325,0.40964943170547485,0.072843536734581
1710962151779798800,30.748798828125,0.593667209148407,0.37498384714126587,0.033978380262851715
1710962151813131800,30.7821318359375,0.3399364948272705,0.21463645994663239,-0.135226309299469
1710962151846464800,30.81546484375,0.5210527181625366,0.5740436911582947,-0.19890713691711426
1710962151879797800,30.8487978515625,0.3184804916381836,0.23151111602783203,0.41476529836654663
1710962151913130800,30.882130859375,0.3680354654788971,0.47798797488212585,0.7101099491119385
1710962151946463700,30.915463623046875,0.4665345847606659,0.009315420873463154,0.8647306561470032
1710962151979796700,30.948796630859373,0.4422534108161926,0.4831801950931549,-0.2895416021347046
1710962152013129700,30.982129638671875,0.4106420576572418,0.9301676750183105,-0.3949127495288849
1710962152046462700,31.015462646484377,0.1710372269153595,0.19684553146362305,0.232503741979599
1710962152079795700,31.048795654296875,0.06650599837303162,0.4416425824165344,0.46600010991096497
1710962152113128400,31.08212841796875,0.01832541823387146,0.0984991192817688,0.5819846987724304
1710962152146461400,31.11546142578125,-0.19860170781612396,0.14813046157360077,0.19982340931892395
1710962152179794400,31.14879443359375,0.05329642444849014,0.45416492223739624,0.04772244393825531
1710962152213127400,31.18212744140625,-0.07009471952915192,0.20814619958400726,0.10636378079652786
1710962152246460400,31.21546044921875,-0.23425991833209991,0.15988926589488983,0.11529742181301117
1710962152279793400,31.24879345703125,0.1882936656475067,0.18646112084388733,0.07200361788272858
1710962152313126400,31.28212646484375,-0.005497625097632408,0.009697199799120426,-0.040010496973991394
1710962152346459400,31.31545947265625,-0.0922379344701767,-0.1814979910850525,0.11926792562007904
1710962152379792400,31.34879248046875,0.2808370292186737,0.09781191498041153,-0.024510245770215988
1710962152413125400,31.38212548828125,-0.008322793990373611,-0.09941539168357849,0.15378080308437347
1710962152446458400,31.415458251953126,-0.14736689627170563,-0.264725923538208,0.17538951337337494
1710962152479791000,31.448791015625,-0.0883437842130661,-0.39170581102371216,0.16011834144592285
1710962152513124000,31.4821240234375,-0.18569757044315338,-0.3136700689792633,0.031000498682260513
1710962152546457000,31.51545703125,-0.19424942135810852,-0.2751103341579437,0.3080960810184479
1710962152579790000,31.5487900390625,-0.30939415097236633,-0.7108734846115112,0.31527355313301086
1710962152613123000,31.582123046875,-0.16011834144592285,-0.5489989519119263,-0.17355698347091675
1710962152646456000,31.6154560546875,-0.12247487902641296,-0.46661093831062317,0.0165692325681448
1710962152679789000,31.6487890625,-1.2885059118270874,-0.6339067220687866,0.4913502633571625
1710962152713122000,31.6821220703125,-1.0719605684280396,-0.8703046441078186,0.5157841444015503
1710962152746455000,31.715455078125,-0.4040754735469818,-0.3837648034095764,0.18394137918949127
1710962152779788000,31.7487880859375,0.014583977870643139,-0.3200076222419739,-0.3062635362148285
1710962152813121000,31.78212109375,0.049707695841789246,-0.18187977373600006,-0.6459710001945496
1710962152846453800,31.815453857421875,-0.05306735634803772,-0.18096350133419037,-0.23021306097507477
1710962152879786800,31.848786865234374,-0.4140017330646515,-0.5950415730476379,0.02405211143195629
1710962152913119700,31.88211962890625,-0.6016082167625427,-0.8519791960716248,-0.3217637836933136
1710962152946452700,31.91545263671875,-0.39895960688591003,-0.7991409301757812,-0.24823305010795593
1710962152979785700,31.94878564453125,-0.38994961977005005,-1.1709941625595093,-0.007101099472492933
1710962153013118700,31.98211865234375,-0.2799971103668213,-0.6587987542152405,-0.1014770045876503
1710962153046451700,32.01545166015625,-0.10155335813760757,-0.3996468186378479,0.41927027702331543
1710962153079784700,32.04878466796875,-0.2268534004688263,-1.091889500617981,0.3045073449611664
1710962153113117700,32.08211767578125,0.19860170781612396,-0.6946097016334534,-0.8708391189575195
1710962153146450700,32.11545068359375,0.7361472845077515,0.1271325796842575,-2.218291759490967
1710962153179783700,32.14878369140625,0.834570050239563,0.6027535200119019,-1.7446560859680176
1710962153213116400,32.18211645507812,0.5567872524261475,0.03306210786104202,0.7224795818328857
1710962153246449400,32.215449462890625,0.082082599401474,-0.4782170355319977,1.3886085748672485
1710962153279782400,32.24878247070313,-0.044820915907621384,-0.12911784648895264,0.13621893525123596
1710962153313115400,32.28211547851563,0.27679017186164856,0.4898231327533722,-0.712247908115387
1710962153346448400,32.31544848632812,0.41896486282348633,0.28541839122772217,-0.3462740480899811
1710962153379781400,32.348781494140624,0.1522536724805832,0.26762744784355164,0.04413371533155441
1710962153413114400,32.3821142578125,0.012598725035786629,0.653224766254425,0.2086043357849121
1710962153446447400,32.415447265625,0.17974179983139038,0.07811209559440613,0.704535961151123
1710962153479780400,32.4487802734375,0.09208522737026215,0.15798036754131317,0.28763270378112793
1710962153513113300,32.48211328125,0.07322531193494797,0.5278483629226685,-0.2477749139070511
1710962153546446300,32.5154462890625,-0.018707197159528732,0.1513374149799347,-0.0791047215461731
1710962153579779000,32.548779052734375,-0.17897824943065643,0.08696937561035156,0.11147962510585785
1710962153613112000,32.582112060546876,-0.0984991192817688,0.1751604527235031,0.4722612798213959
1710962153646445000,32.61544506835938,-0.11422843486070633,-0.1139993667602539,0.6216897964477539
1710962153679778000,32.64877807617187,-0.13438639044761658,0.14614520967006683,0.054899897426366806
1710962153713111000,32.682111083984374,-0.0325276181101799,0.1291942000389099,-0.18798823654651642
1710962153746444000,32.715444091796876,-0.022754060104489326,0.15202461183071136,-0.241742804646492
1710962153779777000,32.74877709960938,0.013514995574951172,0.3292466700077057,-0.10162971168756485
1710962153813110000,32.78211010742187,0.008475505746901035,-0.03374931216239929,0.529451847076416
1710962153846443000,32.81544311523437,-0.5112791657447815,-0.4227063059806824,0.9684983491897583
1710962153879776000,32.84877587890625,-0.5732801556587219,-0.4333197772502899,0.6928535103797913
1710962153913109000,32.88210888671875,0.023441264405846596,-0.038636088371276855,-0.2934357523918152
1710962153946441700,32.915441650390626,0.22692975401878357,0.18913358449935913,-1.1645803451538086
1710962153979774700,32.94877465820313,0.10941801220178604,-0.04161396995186806,-1.2348277568817139
1710962154013107700,32.98210766601562,0.0695602297782898,0.03451287001371384,-0.8982508778572083
1710962154046440700,33.015440673828124,-0.14576342701911926,-0.06543701142072678,-0.31893861293792725
1710962154079773700,33.048773681640625,-0.3844519853591919,-0.5086066722869873,0.7815027236938477
1710962154113106700,33.08210668945313,0.10789089649915695,-0.03764346241950989,1.2264286279678345
1710962154146439700,33.11543969726562,-0.061084724962711334,0.05803048983216286,0.960328221321106
1710962154179772700,33.14877270507812,0.13156123459339142,0.3249707520008087,0.2489202618598938
1710962154213105700,33.182105712890625,0.5823665261268616,0.40369367599487305,-0.5082249045372009
1710962154246438700,33.215438720703126,0.4300364851951599,0.5478536486625671,-0.8674030900001526
1710962154279771600,33.24877172851563,0.5258631110191345,0.7152257561683655,-0.7246175408363342
1710962154313104400,33.2821044921875,0.24136102199554443,0.314586341381073,-0.010308047756552696
1710962154346437400,33.31543725585937,-0.08704573661088943,0.026037365198135376,0.5441122055053711
1710962154379770400,33.348770263671874,0.3761292099952698,0.4856235682964325,0.573585569858551
1710962154413103400,33.382103271484375,0.23586340248584747,0.2627406716346741,0.372464120388031
1710962154446436400,33.41543627929688,-0.10040801763534546,0.20257222652435303,-0.2867927849292755
1710962154479769300,33.44876928710938,0.18913358449935913,0.4214846193790436,-0.31298285722732544
1710962154513102300,33.48210229492187,-0.1453816443681717,0.016874656081199646,0.06452073901891708
1710962154546435300,33.515435302734375,-0.31771692633628845,-0.0007635590736754239,0.3781144618988037
1710962154579768300,33.548768310546876,-0.06322269141674042,0.40094485878944397,0.22303560376167297
1710962154613101300,33.58210131835938,-0.39117130637168884,-0.21914145350456238,0.2381540685892105
1710962154646434300,33.61543432617187,-0.3456631898880005,-0.04489727318286896,-0.1522536724805832
1710962154679767000,33.64876708984375,0.15034478902816772,-0.19119518995285034,0.07719582319259644
1710962154713100000,33.68210009765625,-0.05016583204269409,-0.17004460096359253,-0.4554629921913147
1710962154746433000,33.71543310546875,0.011300674639642239,-0.051616594195365906,-0.40277740359306335
1710962154779766000,33.74876611328125,-0.03894151374697685,-0.37024980783462524,0.13003410398960114
1710962154813099000,33.78209912109375,-0.3379512429237366,-0.41056570410728455,0.03489464893937111
1710962154846432000,33.81543188476562,-0.18501035869121552,-0.31687700748443604,-0.13499724864959717
1710962154879765000,33.848764892578124,-0.17050273716449738,-0.20967331528663635,-0.5881695747375488
1710962154913098000,33.882097900390626,-0.27388864755630493,-0.05741964280605316,-0.759512186050415
1710962154946431000,33.91543090820313,0.019088976085186005,0.09941539168357849,-0.5580853223800659
1710962154979764000,33.94876391601562,0.30985227227211,-0.023212196305394173,-0.17202985286712646
1710962155013097000,33.982096923828124,0.5703022480010986,0.2546469569206238,-0.44423866271972656
1710962155046429700,34.0154296875,0.724006712436676,0.8559496998786926,-0.9631534218788147
1710962155079762700,34.0487626953125,0.589314877986908,0.6109235882759094,-0.5946598052978516
1710962155113095700,34.082095703125,0.674757182598114,0.5725166201591492,-0.4163687527179718
1710962155146428700,34.1154287109375,0.5469373464584351,0.3089359998703003,-0.3456631898880005
1710962155179761700,34.14876171875,0.0620773509144783,0.09888090193271637,-0.3026748299598694
1710962155213094700,34.1820947265625,-0.07360709458589554,-0.06719319522380829,-0.15110833942890167
1710962155246427600,34.215427734375,0.027717193588614464,-0.9573503732681274,0.37735089659690857
1710962155279760600,34.2487607421875,-0.129499614238739,-0.9326874017715454,1.4734399318695068
1710962155313093600,34.28209375,-0.09681928902864456,-0.423164427280426,1.4409886598587036
1710962155346426600,34.31542651367187,0.17867282032966614,-0.2235700935125351,-0.19302773475646973
1710962155379759600,34.348759521484375,0.5219689607620239,0.6523085236549377,-1.2723948955535889
1710962155413092400,34.38209228515625,0.5213581323623657,0.08544225990772247,-0.1214822456240654
1710962155446425300,34.41542529296875,0.2274642437696457,-0.7795174717903137,0.8548807501792908
1710962155479758300,34.44875830078125,0.20677179098129272,-0.5262449383735657,0.04092676565051079
1710962155513091300,34.48209130859375,0.09452861547470093,-0.09361234307289124,-0.7908181548118591
1710962155546424300,34.51542431640625,-0.04840964451432228,-0.6533011198043823,-0.45225605368614197
1710962155579757300,34.54875732421875,-0.051922015845775604,-0.7372926473617554,0.2217375487089157
1710962155613090300,34.58209033203125,-0.020463382825255394,-0.246247798204422,0.27091076970100403
1710962155646423300,34.61542333984375,0.0558161698281765,-0.19974705576896667,0.31947311758995056
1710962155679756300,34.64875634765625,0.01252236869186163,-0.5619031190872192,0.35230615735054016
1710962155713089300,34.68208935546875,-0.041766680777072906,-0.1716480851173401,-0.015347537584602833
1710962155746422300,34.71542236328125,-0.06047387793660164,0.19783815741539001,-0.31504446268081665
1710962155779755000,34.74875512695313,-0.04031591862440109,0.2208212912082672,-0.22021043300628662
1710962155813088000,34.782087890625,-0.07055285573005676,0.06704048812389374,0.18699561059474945
1710962155846421000,34.8154208984375,-0.16378341615200043,0.10987614840269089,0.3465031087398529
1710962155879754000,34.84875390625,-0.10666920244693756,0.3209238648414612,0.34253260493278503
1710962155913087000,34.8820869140625,0.06291726976633072,0.3749074935913086,0.4444677233695984
1710962155946420000,34.915419921875,0.07528692483901978,0.4946335554122925,0.2331145852804184
1710962155979753000,34.9487529296875,-0.013133215717971325,0.7734853625297546,-0.1083490327000618
1710962156013086000,34.9820859375,-0.08383878320455551,0.5870242118835449,-0.026190076023340225
1710962156046419000,35.0154189453125,-0.03451287001371384,0.3148917555809021,0.43049460649490356
1710962156079752000,35.048751953125,0.006337540224194527,0.20287764072418213,0.3981196880340576
1710962156113085000,35.0820849609375,0.13324105739593506,0.08101361989974976,0.059175826609134674
1710962156146417700,35.11541772460937,0.48493635654449463,0.5984776020050049,-1.1061680316925049
1710962156179750700,35.148750732421874,0.9634588360786438,1.1546540260314941,-2.3194634914398193
1710962156213083600,35.182083740234376,1.1060916185379028,1.226581335067749,-1.6501275300979614
1710962156246416600,35.21541674804688,1.0220237970352173,0.8222004175186157,-0.319320410490036
1710962156279749600,35.24874951171875,1.0156099796295166,0.7127060294151306,0.35200074315071106
1710962156313082600,35.28208251953125,0.5273902416229248,0.8108997344970703,0.6574243903160095
1710962156346415600,35.31541552734375,-0.12255123257637024,-0.5714476108551025,1.1745829582214355
1710962156379748600,35.34874853515625,-0.10353861004114151,-0.03542914241552353,0.9943066239356995
1710962156413081600,35.38208154296875,-0.11751174181699753,-0.43767204880714417,0.9910996556282043
1710962156446414600,35.41541455078125,-0.1823379099369049,0.0946049690246582,0.8386932611465454
1710962156479747600,35.44874755859375,-0.2725142240524292,0.2077644169330597,1.0934165716171265
1710962156513080300,35.482080322265624,-0.5868715047836304,0.015652960166335106,0.703619658946991
1710962156546413300,35.515413330078125,-0.40277740359306335,0.09452861547470093,0.9417737722396851
1710962156579746300,35.54874633789063,-0.3413872718811035,-0.055587101727724075,0.7550072073936462
1710962156613079300,35.58207934570312,-0.4279748499393463,-0.09994988143444061,0.4748573899269104
1710962156646412300,35.61541235351562,0.06994201242923737,0.36666107177734375,0.12071868777275085
1710962156679745300,35.648745361328125,0.2652604281902313,0.1169772520661354,-0.48363831639289856
1710962156713078300,35.682078369140626,0.2677801549434662,-0.13087402284145355,-0.24456797540187836
1710962156746411300,35.71541137695313,0.20409934222698212,-0.006337540224194527,-0.39178216457366943
1710962156779744300,35.748744140625,-0.13873867690563202,-0.1385096162557602,-0.3352024257183075
1710962156813077200,35.7820771484375,-0.34551048278808594,-0.24792763590812683,-0.24540787935256958
1710962156846410200,35.81541015625,-0.22150848805904388,-0.0758214145898819,-0.34932827949523926
1710962156879743000,35.848742919921875,-0.1611873209476471,-0.111632339656353,-0.12820157408714294
1710962156913076000,35.88207592773438,-0.07146912813186646,-0.5165477395057678,-0.258999228477478
1710962156946409000,35.91540893554688,0.21150586009025574,-0.00038177953683771193,-0.5705313682556152
1710962156979742000,35.94874194335937,0.16615045070648193,-0.09116895496845245,-0.5013529062271118
1710962157013075000,35.982074951171874,-0.11926792562007904,-1.3124053478240967,-0.3962871730327606
1710962157046408000,36.015407958984376,-0.20371755957603455,-1.0598963499069214,-0.7156839370727539
1710962157079741000,36.04874096679688,-0.15568970143795013,-0.5398362874984741,-0.9235246777534485
1710962157113074000,36.08207397460937,-0.16439427435398102,-0.6671979427337646,-0.8745805621147156
1710962157146407000,36.115406982421874,-0.38956785202026367,-0.884430468082428,-0.7343910932540894
1710962157179740000,36.148739990234375,-0.7163711190223694,-0.8183062672615051,-0.6323032975196838
1710962157213073000,36.18207299804688,-0.9698727130889893,-0.8065474629402161,-0.5675534605979919
1710962157246405600,36.21540551757813,-0.8624399900436401,-0.8100598454475403,-0.358720064163208
1710962157279738600,36.24873852539063,-0.5752654075622559,-0.5604523420333862,-0.211582213640213
1710962157313071600,36.28207153320312,0.10460758954286575,0.07024743407964706,0.14706148207187653
1710962157346404600,36.315404541015624,0.535789430141449,0.06795676052570343,0.4437805414199829
1710962157379737600,36.348737548828126,0.4685961902141571,0.25625041127204895,-0.36123979091644287
1710962157413070600,36.38207055664063,0.030313294380903244,1.2993484735488892,-0.627721905708313
1710962157446403600,36.41540356445312,-0.07475243508815765,-0.5548783540725708,-0.09597937762737274
1710962157479736600,36.448736572265624,-0.15263545513153076,-1.1329689025878906,0.154926136136055
1710962157513069600,36.482069580078125,0.41713231801986694,-0.6545228362083435,0.43583953380584717
1710962157546402600,36.51540258789063,0.6991146802902222,-0.503414511680603,0.535789430141449
1710962157579735600,36.54873559570313,0.6905628442764282,-0.41117656230926514,0.14171656966209412
1710962157613068300,36.582068359375,0.6339067220687866,-0.3784198760986328,-0.5061632990837097
1710962157646401300,36.6154013671875,0.5703786015510559,0.051463883370161057,-0.5393781065940857
1710962157679734300,36.648734375,0.49112120270729065,0.10651648789644241,-0.24013933539390564
1710962157713067300,36.6820673828125,0.9058101177215576,0.5599178671836853,0.06329904496669769
1710962157746400300,36.71540014648438,1.0085852146148682,1.3395116329193115,0.4679090082645416
1710962157779733200,36.74873315429687,0.9634588360786438,0.9925504326820374,0.37765631079673767
1710962157813066200,36.78206616210937,1.116552472114563,0.5604523420333862,0.20677179098129272
1710962157846399200,36.815399169921875,1.0104176998138428,0.8552625179290771,0.5824428796768188
1710962157879732200,36.84873217773438,0.9258154034614563,1.1436587572097778,0.7432484030723572
1710962157913065200,36.88206518554688,1.0157626867294312,0.7893673777580261,0.5669426321983337
1710962157946398200,36.91539819335937,0.9830822944641113,0.2767138183116913,0.6511631608009338
1710962157979731000,36.94873095703125,1.188937783241272,0.9335273504257202,0.5854207277297974
1710962158013064000,36.98206396484375,1.528721570968628,1.5500248670578003,0.19799086451530457
1710962158046397000,37.01539697265625,1.3120999336242676,0.3222982883453369,-0.42514967918395996
1710962158079730000,37.04872998046875,1.439079761505127,-0.4424061179161072,-0.8552625179290771
1710962158113063000,37.08206298828125,0.7731035351753235,0.1820324808359146,0.059175826609134674
1710962158146396000,37.11539599609375,0.10109522193670273,-0.09750649333000183,1.0626451969146729
1710962158179729000,37.14872900390625,0.34726667404174805,-0.23380178213119507,1.4096064567565918
1710962158213062000,37.182061767578126,0.6446729302406311,0.052609220147132874,1.164427638053894
1710962158246395000,37.21539477539063,0.2160872220993042,-0.3509317636489868,0.6432221531867981
1710962158279727900,37.24872778320312,-0.0295497365295887,-0.4560738205909729,0.7564579844474792
1710962158313060900,37.282060791015624,0.031153209507465363,-0.25472331047058105,0.8280798196792603
1710962158346393600,37.3153935546875,-0.11270131915807724,-0.13217207789421082,0.6826981902122498
1710962158379726600,37.3487265625,-0.6393280029296875,-0.40751147270202637,0.6441384553909302
1710962158413059600,37.3820595703125,-0.7973847389221191,-0.5318188667297363,0.2020377367734909
1710962158446392600,37.415392578125,-0.37689274549484253,-0.22662433981895447,0.20837527513504028
1710962158479725600,37.4487255859375,0.23601610958576202,0.08521319180727005,0.31855684518814087
1710962158513058600,37.48205859375,0.6229115128517151,0.1644706279039383,-0.30214032530784607
1710962158546391600,37.5153916015625,0.08574768155813217,0.20272493362426758,-0.4049917459487915
1710962158579724500,37.548724609375,-0.7476006746292114,-0.4152234196662903,0.05894676223397255
1710962158613057500,37.5820576171875,-0.9706363081932068,-0.4737120568752289,0.387658953666687
1710962158646390500,37.615390625,-0.223264679312706,0.06047387793660164,-0.13186664879322052
1710962158679723500,37.6487236328125,0.09269607067108154,0.21120044589042664,-0.4661528170108795
1710962158713056300,37.68205615234375,-0.09750649333000183,-0.20669543743133545,-0.5519768595695496
1710962158746389200,37.71538916015625,0.21738526225090027,-0.3507790267467499,-0.7868476510047913
1710962158779722200,37.74872216796875,0.03184041380882263,0.35627666115760803,-0.63199782371521
1710962158813055200,37.78205517578125,-0.3844519853591919,-0.04222481697797775,-0.643756628036499
1710962158846388200,37.81538818359375,-0.6259657144546509,-0.50853031873703,-0.6976639032363892
1710962158879721200,37.84872119140625,-0.47142136096954346,-0.10453123599290848,-0.8293778896331787
1710962158913054200,37.88205419921875,-0.46462568640708923,-0.10957072675228119,-0.6732300519943237
1710962158946387200,37.91538720703125,-0.6597914099693298,-0.2212030589580536,0.19806721806526184
1710962158979720200,37.94872021484375,-0.09666658192873001,-0.17752748727798462,0.33023929595947266
1710962159013053200,37.98205322265625,0.44729289412498474,-0.2655658423900604,-0.5748072862625122
1710962159046386200,38.01538623046875,0.5032618045806885,-0.26762744784355164,-0.61397784948349
1710962159079719000,38.04871899414063,0.6290963292121887,-0.14515258371829987,-0.14370182156562805
1710962159113052000,38.08205200195312,0.8688538670539856,0.43981003761291504,-0.36192700266838074
1710962159146385000,38.115385009765625,0.6949914693832397,0.09659022092819214,-0.8362498879432678
1710962159179718000,38.1487177734375,0.18019993603229523,-0.49745872616767883,-0.7863131165504456
1710962159213051000,38.18205078125,0.28404396772384644,-0.03840702027082443,-0.5568636059761047
1710962159246383900,38.2153837890625,0.762413740158081,0.8992435336112976,-0.7343147397041321
1710962159279716900,38.248716796875,0.8467106819152832,1.1052517890930176,-1.083337664604187
1710962159313049900,38.2820498046875,0.07337802648544312,0.6340594291687012,-1.035386085510254
1710962159346382800,38.3153828125,-0.050394900143146515,0.1247655525803566,-0.7293516397476196
1710962159379715800,38.3487158203125,0.11285403370857239,-0.34253260493278503,-0.2602972984313965
1710962159413048800,38.382048828125,-0.15630054473876953,-0.3378748893737793,-0.0032069480512291193
1710962159446381600,38.41538159179687,-0.14064757525920868,-0.334515243768692,-0.07696675509214401
1710962159479714600,38.448714599609374,0.15691138803958893,-0.07994463294744492,-0.08857285231351852
1710962159513047600,38.482047607421876,0.12278030067682266,0.1178935244679451,0.21165858209133148
1710962159546380500,38.51538061523438,0.026571854948997498,-0.23777230083942413,0.2235700935125351
1710962159579713500,38.54871362304687,-0.3312319219112396,-0.9288696050643921,0.30214032530784607
1710962159613046500,38.582046630859374,-0.23433628678321838,-0.5739673376083374,0.5685460567474365
1710962159646379500,38.615379638671875,0.253425270318985,0.2271588295698166,0.48875415325164795
1710962159679712500,38.64871240234375,0.30046048760414124,0.2816769480705261,-0.12988139688968658
1710962159713045500,38.68204541015625,0.2495311051607132,0.13774605095386505,-0.31588438153266907
1710962159746378500,38.71537841796875,0.06070294603705406,0.19272230565547943,0.11254860460758209
1710962159779711500,38.74871142578125,-0.12377292662858963,0.16156910359859467,0.3262687921524048
1710962159813044200,38.782044189453124,-0.05474718660116196,0.16019469499588013,0.26640576124191284
1710962159846377200,38.815377197265626,0.12644538283348083,0.3788016438484192,0.11476293206214905
1710962159879710200,38.84871020507813,0.17645850777626038,0.3742966651916504,0.15065020322799683
1710962159913043200,38.88204321289062,0.018096350133419037,0.1805817186832428,0.3835357129573822
1710962159946376200,38.91537622070312,-0.062153708189725876,0.03458922728896141,0.6243622303009033
1710962159979709200,38.948709228515625,-0.05276193097233772,0.15897299349308014,0.632914125919342
1710962160013042200,38.98204223632813,0.09941539168357849,0.16523417830467224,0.40728241205215454
1710962160046375200,39.01537524414063,0.08735115826129913,0.09651386737823486,0.10170606523752213
1710962160079708200,39.04870825195312,0.4486673176288605,0.035352785140275955,-0.29648998379707336
1710962160113041200,39.082041259765624,0.8226585388183594,0.11285403370857239,-0.13744063675403595
1710962160146374100,39.1153740234375,0.35681116580963135,0.05543438717722893,0.5147151947021484
1710962160179707000,39.148706787109376,-0.04963133856654167,-0.16973918676376343,0.6760551929473877
1710962160213039900,39.18203979492188,0.27060532569885254,-0.09330692142248154,0.31412819027900696
1710962160246372900,39.21537280273437,0.043981000781059265,-0.1429382562637329,0.49318280816078186
1710962160279705900,39.24870581054687,-0.3449759781360626,-0.31771692633628845,0.7185854315757751
1710962160313038800,39.282038818359375,-0.2982461750507355,-0.5741963982582092,0.4516451954841614
1710962160346371800,39.31537182617188,-0.05535803362727165,-0.20990239083766937,0.3922402858734131
1710962160379704800,39.34870483398438,0.10888352245092392,0.008475505746901035,0.6400152444839478
1710962160413037800,39.38203784179687,0.07124006003141403,-0.27144524455070496,0.47554460167884827
1710962160446370800,39.415370849609374,0.3742966651916504,-0.08528954535722733,0.1821088343858719
1710962160479703800,39.448703857421876,0.7846332788467407,0.16042375564575195,0.05070032179355621
1710962160513036800,39.48203686523438,0.4074351191520691,-0.018019994720816612,0.02435753494501114
1710962160546369500,39.51536962890625,-0.5831300616264343,-0.9063445925712585,0.05566345527768135
1710962160579702500,39.54870263671875,-0.6733827590942383,-1.0137773752212524,0.09643751382827759
1710962160613035500,39.58203540039062,0.35856732726097107,-0.21417832374572754,-0.13950224220752716
1710962160646368500,39.615368408203125,0.6668924689292908,0.2764083743095398,-0.30221667885780334
1710962160679701500,39.648701416015626,0.3843756318092346,0.0719272643327713,0.14003673195838928
1710962160713034500,39.68203442382813,0.1372879147529602,-0.07902836054563522,0.3310028612613678
1710962160746367500,39.71536743164062,0.1382041871547699,-0.010231691412627697,0.2101314514875412
1710962160779700500,39.748700439453124,-0.16973918676376343,-0.020692450925707817,0.26403874158859253
1710962160813033500,39.782033447265626,-0.4542413055896759,-0.24311721324920654,0.3504736125469208
1710962160846366500,39.81536645507813,0.041919391602277756,0.014125842601060867,0.2775537371635437
1710962160879699500,39.84869946289062,0.2279987335205078,0.16011834144592285,-0.0293970238417387
1710962160913032200,39.8820322265625,-0.1044548824429512,0.11552648991346359,0.07757759839296341
1710962160946365200,39.915365234375,-0.3456631898880005,0.12942326068878174,0.16943375766277313
1710962160979698200,39.9486982421875,-0.4855472147464752,0.10430216789245605,0.18875180184841156
1710962161013031200,39.98203125,-0.4080459773540497,0.10575293004512787,0.2020377367734909
1710962161046364200,40.0153642578125,-0.14171656966209412,0.053525492548942566,0.3325299620628357
1710962161079697200,40.048697265625,0.06421531736850739,-0.17264071106910706,0.41682690382003784
1710962161113030100,40.082030029296874,0.21723255515098572,0.3545968234539032,0.20157960057258606
1710962161146363100,40.115363037109375,0.164165198802948,0.8326611518859863,-0.35887277126312256
1710962161179696000,40.14869604492188,-0.37590011954307556,0.14721418917179108,-0.9058864712715149
1710962161213029000,40.18202905273437,-0.7134696245193481,-0.37590011954307556,-0.6500178575515747
1710962161246362000,40.21536206054687,-0.6200099587440491,-0.2761029601097107,-0.14248012006282806
1710962161279694800,40.24869482421875,-0.23082390427589417,-0.26128992438316345,-0.02886253222823143
1710962161313027800,40.28202783203125,0.11331216990947723,-0.2554105222225189,-0.15271180868148804
1710962161346360800,40.31536083984375,0.4659237563610077,0.1396549493074417,-0.4858526289463043
1710962161379693800,40.34869384765625,0.636350154876709,0.41804859042167664,-0.9339091181755066
1710962161413026800,40.38202685546875,0.0587940476834774,0.2764083743095398,-0.9728506207466125
1710962161446359800,40.41535986328125,-0.522885262966156,-0.31680065393447876,-0.7229377031326294
1710962161479692800,40.44869287109375,-0.09536852687597275,-0.03687990456819534,-0.6302416324615479
1710962161513025800,40.48202587890625,0.23838314414024353,0.46989426016807556,-0.4107184112071991
1710962161546358800,40.51535888671875,0.0946049690246582,0.3416926860809326,-0.21975229680538177
1710962161579691800,40.54869189453125,0.011453386396169662,0.15179555118083954,-0.381474107503891
1710962161613024800,40.582024658203125,-0.1662268042564392,-0.1784437596797943,-0.4423297643661499
1710962161646357500,40.615357421875,0.11926792562007904,0.28282228112220764,-0.27679017186164856
1710962161679690500,40.6486904296875,-0.09735377877950668,0.04222481697797775,-0.0361163429915905
1710962161713023500,40.6820234375,-0.5013529062271118,-0.3856737017631531,0.24304085969924927
1710962161746356500,40.7153564453125,-0.5570163726806641,-0.5679352283477783,0.42423340678215027
1710962161779689500,40.748689453125,-0.32901760935783386,-0.17271706461906433,0.3725404739379883
1710962161813022500,40.7820224609375,-0.10705098509788513,0.05543438717722893,0.255715936422348
1710962161846355500,40.81535546875,-0.2770192325115204,-0.2504473626613617,0.12629267573356628
1710962161879688400,40.8486884765625,-0.1629435122013092,-0.21463645994663239,0.0653606578707695
1710962161913021400,40.882021484375,0.10155335813760757,0.03321481868624687,0.06742226332426071
1710962161946354400,40.9153544921875,0.09933903813362122,0.1044548824429512,0.08674030750989914
1710962161979687400,40.9486875,0.022677704691886902,0.015042114071547985,0.07566870748996735
1710962162013020200,40.98202026367188,-0.03214583545923233,-0.028557108715176582,0.09063446521759033
1710962162046353200,41.01535327148437,-0.014202198944985867,0.031534988433122635,0.09109259396791458
1710962162079686100,41.04868603515625,0.012140588834881783,0.04169032722711563,0.10659284889698029
