time,seconds_elapsed,z,y,x
1710958213819417000,0.1524169921875,-1.8371000289916992,-0.6121875047683716,-0.021455705165863037
1710958213877322500,0.210322509765625,-2.8822827339172363,1.4602982997894287,-1.920470952987671
1710958213935228000,0.268227783203125,2.1750659942626953,0.20730209350585938,-0.9921340942382812
1710958213993133600,0.326133544921875,-0.30132293701171875,1.7136988639831543,-1.455146074295044
1710958214051039000,0.3840390625,0.9619035720825195,-1.7083563804626465,-3.373469829559326
1710958214108944600,0.441944580078125,-4.215588092803955,-1.724613904953003,-0.4332479238510132
1710958214166850300,0.499850341796875,-1.67364501953125,-2.8129284381866455,0.673408031463623
1710958214224755700,0.557755615234375,1.8849258422851562,-0.12697505950927734,-1.3084884881973267
1710958214282661400,0.615661376953125,2.618499755859375,-2.2938013076782227,0.687404990196228
1710958214340566800,0.67356689453125,0.9717617034912109,-0.015453338623046875,0.8560940027236938
1710958214398472400,0.731472412109375,0.530242919921875,0.13308405876159668,0.214621901512146
1710958214456377900,0.7893779296875,-0.6317720413208008,0.34761857986450195,0.4717555046081543
1710958214514283500,0.847283447265625,-0.9193754196166992,0.21558904647827148,0.32471656799316406
1710958214572189000,0.90518896484375,-0.2922554016113281,0.5354681015014648,0.5965400338172913
1710958214630094600,0.963094482421875,0.35637378692626953,0.3112611770629883,0.522982656955719
1710958214688000300,1.021000244140625,0.058528900146484375,0.25911498069763184,0.7746194005012512
1710958214745905700,1.07890576171875,0.06687545776367188,0.38670778274536133,0.5718801617622375
1710958214803811300,1.136811279296875,0.4664621353149414,0.22020363807678223,0.31199049949645996
1710958214861716700,1.194716796875,-0.05735969543457031,0.29283785820007324,0.44543927907943726
1710958214919622400,1.252622314453125,0.4884052276611328,0.16735386848449707,0.6500105857849121
1710958214977527800,1.31052783203125,0.04152870178222656,0.08835816383361816,0.5562846660614014
1710958215035433500,1.36843359375,-0.24577999114990234,0.16038012504577637,0.4451519250869751
1710958215093339000,1.4263388671875,0.24648475646972656,0.0957174301147461,0.345516562461853
1710958215151244500,1.48424462890625,0.12733936309814453,0.18287181854248047,0.36184874176979065
1710958215209150200,1.542150146484375,0.10771751403808594,0.1873486042022705,0.31704244017601013
1710958215267055600,1.6000556640625,0.18201828002929688,0.10542964935302734,0.23349347710609436
1710958215324961300,1.657961181640625,0.01731109619140625,0.09301018714904785,0.25828972458839417
1710958215382866700,1.71586669921875,0.035945892333984375,0.02895808219909668,0.20947971940040588
1710958215440772400,1.7737724609375,-0.16857337951660156,0.07132196426391602,0.12190604209899902
1710958215498677800,1.831677734375,0.16550540924072266,-0.04772639274597168,0.1586477905511856
1710958215556583400,1.88958349609375,-0.016257286071777344,0.008751153945922852,0.04202796518802643
1710958215614488800,1.94748876953125,0.15114402770996094,0.05206441879272461,0.23822663724422455
1710958215672394500,2.00539453125,0.03742694854736328,0.06839394569396973,0.08523377031087875
1710958215730300000,2.0632998046875,-0.04671001434326172,0.14196395874023438,0.2803597152233124
1710958215788205600,2.12120556640625,-0.021833419799804688,0.02156209945678711,0.013884373009204865
1710958215846111000,2.179111083984375,0.023392677307128906,0.05616021156311035,0.17417186498641968
1710958215904016600,2.2370166015625,0.17586517333984375,-0.027930259704589844,-0.0636996403336525
1710958215961922000,2.294922119140625,-0.051692962646484375,0.05078268051147461,0.09384717047214508
1710958216019827700,2.35282763671875,0.14542293548583984,-0.04046058654785156,-0.008208692073822021
1710958216077733000,2.410733154296875,0.03877449035644531,-0.029254674911499023,0.12451053410768509
1710958216135638500,2.468638427734375,0.0006055831909179688,-0.004540920257568359,0.0958171933889389
1710958216193544200,2.526544189453125,-0.06621646881103516,0.0009212493896484375,0.011298537254333496
1710958216251449600,2.58444970703125,0.07654190063476562,0.03813815116882324,0.030124537646770477
1710958216309355300,2.642355224609375,-0.08912181854248047,0.028116226196289062,0.13036061823368073
1710958216367260700,2.7002607421875,0.0758829116821289,0.06352543830871582,-0.027475304901599884
1710958216425166000,2.758166015625,0.1913585662841797,0.02450418472290039,-0.04550197720527649
1710958216483071700,2.81607177734375,-0.13114166259765625,-0.03176474571228027,-0.1972990334033966
1710958216540977200,2.87397705078125,0.1819915771484375,0.15014028549194336,-0.00021488964557647705
1710958216598882600,2.931882568359375,0.17413711547851562,0.34859776496887207,0.49953073263168335
1710958216656788200,2.989788330078125,1.2433338165283203,1.1276028156280518,-0.5198676586151123
1710958216714693600,3.047693603515625,-3.33242130279541,-0.40824031829833984,1.3083151578903198
1710958216772599000,3.10559912109375,-1.6359429359436035,-0.2802248001098633,-0.7155895829200745
1710958216830504700,3.163504638671875,-5.606988906860352,-2.2221951484680176,-2.0296924114227295
1710958216888410000,3.22141015625,-10.909250259399414,-9.323246955871582,-4.575802326202393
1710958216946315500,3.2793154296875,-10.849849700927734,-16.54343032836914,-1.2703218460083008
1710958217004221200,3.33722119140625,2.180551052093506,-20.62794303894043,6.423980712890625
1710958217062126600,3.395126708984375,5.0361833572387695,-18.837688446044922,14.216952323913574
1710958217120032000,3.453031982421875,8.248270988464355,-14.056767463684082,16.376266479492188
1710958217177937400,3.5109375,6.981086730957031,-3.687533378601074,19.207042694091797
1710958217235843000,3.568843017578125,-1.3545973300933838,4.8689045906066895,17.094970703125
1710958217293748500,3.62674853515625,4.887766361236572,16.792463302612305,19.124595642089844
1710958217351654000,3.68465380859375,5.360298156738281,17.618188858032227,18.943561553955078
1710958217409559300,3.742559326171875,8.520158767700195,10.067193031311035,14.784521102905273
1710958217467464700,3.800464599609375,6.0537004470825195,0.8901124000549316,17.668378829956055
1710958217525370400,3.858370361328125,11.165197372436523,-10.205865859985352,18.99386215209961
1710958217583275800,3.91627587890625,7.198958396911621,-20.951744079589844,22.829837799072266
1710958217641181200,3.97418115234375,1.0955619812011719,-20.569957733154297,11.97171401977539
1710958217699086600,4.032086669921875,-11.891950607299805,-21.323139190673828,-0.16147422790527344
1710958217756992300,4.0899921875,-7.310712814331055,-22.313264846801758,0.013910293579101562
1710958217814897700,4.147897705078125,-9.725373268127441,-23.070858001708984,-8.42605209350586
1710958217872803000,4.205802978515625,-2.34311842918396,-20.383811950683594,-1.4037842750549316
1710958217930708500,4.26370849609375,-1.0079412460327148,-18.53335189819336,6.579087257385254
1710958217988614000,4.32161376953125,2.5572714805603027,-18.533742904663086,17.77817153930664
1710958218046519300,4.379519287109375,6.7690510749816895,-17.684791564941406,24.56798553466797
1710958218104424700,4.4374248046875,13.318833351135254,-3.923853874206543,24.72886848449707
1710958218162330400,4.495330322265625,0.618817925453186,8.854833602905273,22.752782821655273
1710958218220235800,4.55323583984375,8.227032661437988,15.729547500610352,17.51180648803711
1710958218278141200,4.61114111328125,2.8499534130096436,17.963054656982422,11.066644668579102
1710958218336046600,4.669046630859375,0.606164276599884,16.945253372192383,11.835370063781738
1710958218393952000,4.726951904296875,5.020388126373291,11.339889526367188,11.260294914245605
1710958218451857400,4.784857421875,9.328104972839355,3.6902899742126465,14.432916641235352
1710958218509762800,4.8427626953125,7.798215866088867,-3.661876678466797,22.69049072265625
1710958218567668200,4.900668212890625,3.635927677154541,-15.020174026489258,27.626068115234375
1710958218625574000,4.958573974609375,7.879825115203857,-23.632614135742188,18.600894927978516
1710958218683479300,5.016479248046875,6.272794246673584,-26.132556915283203,9.19437313079834
1710958218741384700,5.074384765625,1.24345064163208,-25.890172958374023,-7.236939907073975
1710958218799290000,5.1322900390625,0.3716277480125427,-24.83708953857422,-15.926520347595215
1710958218857195500,5.190195556640625,3.7788259983062744,-22.903728485107422,-13.751718521118164
1710958218915101000,5.248100830078125,-0.7044632434844971,-20.15919303894043,-6.804557800292969
1710958218973006300,5.30600634765625,3.284996271133423,-19.071613311767578,3.2707576751708984
1710958219030911700,5.363911865234375,3.3977906703948975,-19.244897842407227,14.107263565063477
1710958219088817200,5.421817138671875,4.144012451171875,-16.79625701904297,21.92792510986328
1710958219146722600,5.47972265625,4.02375602722168,-8.31875991821289,30.965469360351562
1710958219204628000,5.5376279296875,0.6442090272903442,6.345180511474609,26.90127182006836
1710958219262533400,5.595533447265625,9.608262062072754,12.811418533325195,18.148561477661133
1710958219320438800,5.653438720703125,4.71458625793457,16.842077255249023,9.997116088867188
1710958219378344200,5.71134423828125,5.239128112792969,16.962867736816406,9.437593460083008
1710958219436249600,5.76924951171875,5.195854187011719,15.604988098144531,9.365584373474121
1710958219494155300,5.8271552734375,7.535412788391113,9.946124076843262,11.617471694946289
1710958219552060700,5.885060791015625,6.75078821182251,3.6086573600769043,15.646480560302734
1710958219609966000,5.942966064453125,2.915316581726074,-4.8336873054504395,23.37396240234375
1710958219667871500,6.00087158203125,1.9707646369934082,-14.190231323242188,24.007190704345703
1710958219725777000,6.05877685546875,0.03428290784358978,-18.35302734375,19.487655639648438
1710958219783682300,6.116682373046875,-0.35937952995300293,-20.355365753173828,13.032794952392578
1710958219841587700,6.174587646484375,2.537163734436035,-22.188167572021484,-5.877564907073975
1710958219899493000,6.2324931640625,1.2931960821151733,-20.12424087524414,-1.4997282028198242
1710958219957398500,6.2903984375,2.6950716972351074,-23.825654983520508,-8.209990501403809
1710958220015304000,6.348303955078125,5.852100849151611,-21.12315559387207,-4.991376876831055
1710958220073209300,6.406209228515625,3.1426644325256348,-17.05010223388672,4.605307579040527
1710958220131114800,6.46411474609375,4.250993728637695,-15.00838851928711,12.636201858520508
1710958220189020200,6.522020263671875,5.779171466827393,-12.718040466308594,20.32874298095703
1710958220246925600,6.579925537109375,5.728530406951904,-7.472156524658203,25.311948776245117
1710958220304831000,6.6378310546875,4.71638822555542,1.7708897590637207,25.459264755249023
1710958220362736400,6.695736328125,5.53448486328125,9.724316596984863,18.146434783935547
1710958220420641800,6.753641845703125,9.562232971191406,15.265851974487305,13.554247856140137
1710958220478547200,6.811547119140625,5.898534774780273,22.009029388427734,9.57874870300293
1710958220536452600,6.86945263671875,6.561424255371094,21.021011352539062,12.087456703186035
1710958220594358000,6.92735791015625,8.61559009552002,13.151601791381836,11.61968994140625
1710958220652263400,6.985263427734375,8.900298118591309,4.296806335449219,19.746007919311523
1710958220710168800,7.0431689453125,12.398378372192383,-5.161624908447266,32.508174896240234
1710958220768074200,7.10107421875,8.503791809082031,-17.2699031829834,34.78346633911133
1710958220825979600,7.158979736328125,4.083147048950195,-21.267391204833984,24.908117294311523
1710958220883885000,7.216885009765625,-0.2774198055267334,-25.34900665283203,7.2592573165893555
1710958220941790500,7.27479052734375,7.0004048347473145,-37.788604736328125,-17.5933837890625
1710958220999696000,7.33269580078125,-1.7074201107025146,-33.201210021972656,-4.151611804962158
1710958221057601300,7.390601318359375,10.74936294555664,-26.392295837402344,-0.3445711135864258
1710958221115506700,7.448506591796875,7.8321404457092285,-23.582473754882812,15.279412269592285
1710958221173412000,7.506412109375,9.691327095031738,-23.313610076904297,25.159513473510742
1710958221231317500,7.5643173828125,15.43301773071289,-20.52359390258789,36.64988708496094
1710958221289223000,7.622222900390625,19.584579467773438,-0.9448099136352539,35.06144332885742
1710958221347128300,7.68012841796875,8.898153305053711,12.127985954284668,28.878211975097656
1710958221405033700,7.73803369140625,10.958253860473633,18.330089569091797,13.18569278717041
1710958221462939100,7.795939208984375,8.951465606689453,26.655445098876953,13.018985748291016
1710958221520844300,7.85384423828125,14.403696060180664,18.880840301513672,12.38841724395752
1710958221578749700,7.911749755859375,13.103536605834961,11.923978805541992,11.722406387329102
1710958221636655000,7.969655029296875,12.595756530761719,2.393781900405884,23.003162384033203
1710958221694560500,8.027560546875,15.661364555358887,-8.701733589172363,41.158878326416016
1710958221752466000,8.0854658203125,9.898655891418457,-26.963483810424805,54.31108856201172
1710958221810371300,8.143371337890626,8.240875244140625,-36.435787200927734,27.673561096191406
1710958221868276700,8.20127685546875,-1.1030292510986328,-39.880210876464844,4.223792552947998
1710958221926182100,8.25918212890625,-0.3282597064971924,-42.06098937988281,-17.446868896484375
1710958221984087600,8.317087646484374,3.7735307216644287,-32.39078903198242,-4.760552406311035
1710958222041992700,8.37499267578125,7.49283504486084,-24.428930282592773,10.397967338562012
1710958222099898000,8.432898193359375,7.174853324890137,-28.461118698120117,24.780750274658203
1710958222157803500,8.490803466796875,11.180001258850098,-29.720001220703125,40.71610641479492
1710958222215709000,8.548708984375,12.767850875854492,-4.998659133911133,41.844642639160156
1710958222273614300,8.6066142578125,2.9081737995147705,10.766368865966797,28.648752212524414
1710958222331519700,8.664519775390625,8.54849910736084,26.861194610595703,19.23979377746582
1710958222389425000,8.7224248046875,-3.1939549446105957,26.48974609375,10.210969924926758
1710958222447330300,8.780330322265625,8.539627075195312,19.744964599609375,10.993858337402344
1710958222505235700,8.838235595703125,17.197799682617188,8.113449096679688,13.924793243408203
1710958222563141000,8.89614111328125,18.939302444458008,-1.20326828956604,26.39026641845703
1710958222621046500,8.954046630859375,13.439569473266602,-13.986837387084961,42.136783599853516
1710958222678951700,9.01195166015625,1.8706321716308594,-24.925045013427734,47.525657653808594
1710958222736857000,9.069857177734375,-3.363128662109375,-25.104999542236328,22.48182487487793
1710958222794762500,9.127762451171876,2.3319497108459473,-27.01305389404297,1.8358949422836304
1710958222852668000,9.18566796875,2.9794726371765137,-36.270477294921875,-5.675806999206543
1710958222910573000,9.243572998046876,2.6636760234832764,-36.69529724121094,-9.228422164916992
1710958222968478500,9.301478515625,1.0187605619430542,-33.2037353515625,17.940637588500977
1710958223026384000,9.3593837890625,0.6031508445739746,-28.079919815063477,38.335411071777344
1710958223084289300,9.417289306640624,-0.038949012756347656,-19.44980239868164,48.68079376220703
1710958223142194400,9.4751943359375,0.37989234924316406,2.844021797180176,41.061031341552734
1710958223200099800,9.533099853515624,6.703405857086182,9.70413589477539,28.570701599121094
1710958223258005200,9.591005126953124,9.080850601196289,15.607757568359375,11.699990272521973
1710958223315910400,9.648910400390625,8.484132766723633,21.246971130371094,11.713604927062988
1710958223373815800,9.70681591796875,11.987285614013672,20.56036949157715,10.802745819091797
1710958223431721200,9.76472119140625,10.059703826904297,10.934694290161133,12.4932861328125
1710958223489626400,9.82262646484375,8.145615577697754,3.7114391326904297,19.358537673950195
1710958223547531800,9.88053173828125,1.3907750844955444,-3.6429319381713867,33.34229278564453
1710958223605437200,9.938437255859375,-7.567924499511719,-10.888051986694336,49.197425842285156
1710958223663342300,9.99634228515625,-5.366608142852783,-19.28949546813965,32.397193908691406
1710958223721247700,10.054247802734375,-11.375094413757324,-29.10920524597168,14.625602722167969
1710958223779153200,10.112153076171875,-7.795022010803223,-31.96609115600586,-3.679643154144287
1710958223837058300,10.170058349609375,-2.2861404418945312,-33.3095703125,-11.6358003616333
1710958223894963700,10.227963623046875,-5.173676013946533,-29.4379940032959,-4.2135772705078125
1710958223952869000,10.285869140625,-1.8836959600448608,-24.691543579101562,21.72602653503418
1710958224010774300,10.343774169921875,-2.1697998046875,-22.652925491333008,36.24570846557617
1710958224068679700,10.4016796875,5.96852970123291,-11.049107551574707,41.375953674316406
1710958224126584800,10.459584716796876,5.419574737548828,5.778286933898926,26.788888931274414
1710958224184490200,10.517490234375,2.04551362991333,14.789994239807129,17.04706382751465
1710958224242395600,10.575395751953126,12.221219062805176,17.43634033203125,11.350954055786133
1710958224300300800,10.63330078125,11.763595581054688,26.172645568847656,4.71284294128418
1710958224358206200,10.691206298828124,18.360197067260742,18.44234275817871,5.764199733734131
1710958224416111600,10.749111572265624,15.562479019165039,10.492265701293945,10.201122283935547
1710958224474016800,10.807016845703124,12.92239761352539,2.815056800842285,23.840579986572266
1710958224531922200,10.864922119140624,8.514646530151367,-7.212751388549805,45.371131896972656
1710958224589827600,10.92282763671875,3.810148000717163,-19.951547622680664,41.47553253173828
1710958224647732700,10.980732666015625,1.389859914779663,-26.770263671875,24.08083724975586
1710958224705638100,11.03863818359375,0.03504568338394165,-32.94572448730469,4.750492095947266
1710958224763543300,11.096543212890625,0.10967528820037842,-38.960479736328125,-7.550653457641602
1710958224821448700,11.15444873046875,1.2562412023544312,-35.45527648925781,-4.478628158569336
1710958224879353900,11.212353759765625,2.758538007736206,-26.746320724487305,16.26966094970703
1710958224937259300,11.27025927734375,4.143206596374512,-18.454864501953125,41.66583251953125
1710958224995164700,11.32816455078125,9.860574722290039,-3.641019821166992,45.20063018798828
1710958225053069800,11.38606982421875,-2.6376757621765137,14.493926048278809,31.48757553100586
1710958225110975200,11.443975341796875,5.489841938018799,15.952834129333496,17.255287170410156
1710958225168880600,11.501880615234375,5.739924430847168,33.067901611328125,14.11769962310791
1710958225226785800,11.559785888671875,9.494085311889648,27.323841094970703,12.31003189086914
1710958225284691200,11.617691162109375,-0.0349116325378418,15.711522102355957,18.20352554321289
1710958225342596400,11.675596435546876,9.873780250549316,1.6481868028640747,25.36966323852539
1710958225400501800,11.733501708984376,10.440999984741211,-11.566107749938965,43.56629180908203
1710958225458407200,11.7914072265625,6.8858842849731445,-21.79994010925293,38.968955993652344
1710958225516312300,11.849312255859376,4.144187927246094,-29.31455421447754,16.974519729614258
1710958225574217700,11.9072177734375,-2.2881312370300293,-34.10699462890625,1.956470012664795
1710958225632123100,11.965123046875,-0.3878594636917114,-36.28139114379883,-9.865310668945312
1710958225690028300,12.0230283203125,2.1619813442230225,-29.817171096801758,2.235469341278076
1710958225747933700,12.08093359375,5.445737361907959,-23.833406448364258,11.363965034484863
1710958225805839000,12.138839111328124,6.353105068206787,-22.982637405395508,29.209259033203125
1710958225863744500,12.19674462890625,7.972482681274414,-15.06621265411377,36.752628326416016
1710958225921649700,12.254649658203125,3.421673059463501,1.0393552780151367,32.61052703857422
1710958225979555000,12.31255517578125,1.62978196144104,12.696990013122559,23.358928680419922
1710958226037460500,12.37046044921875,3.854559898376465,17.14942169189453,11.865800857543945
1710958226095365600,12.42836572265625,2.4902124404907227,23.56386947631836,14.379758834838867
1710958226153271000,12.48627099609375,-0.9257733225822449,19.431425094604492,21.89447021484375
1710958226211176400,12.544176513671875,2.0963847637176514,5.65730094909668,18.354785919189453
1710958226269081900,12.602081787109375,3.085446834564209,-6.49629020690918,25.50196075439453
1710958226326987000,12.659987060546875,4.480783462524414,-20.47922134399414,35.7469596862793
1710958226384892400,12.717892333984375,0.8794376850128174,-25.619407653808594,22.195640563964844
1710958226442797800,12.7757978515625,-2.1496946811676025,-27.035541534423828,8.87411880493164
1710958226500703200,12.833703125,-7.053526401519775,-27.76302719116211,-1.043311595916748
1710958226558608400,12.8916083984375,-10.965502738952637,-30.098472595214844,-2.5024404525756836
1710958226616513800,12.949513671875,-1.856361985206604,-31.907686233520508,-1.472459316253662
1710958226674419200,13.007419189453126,9.472841262817383,-27.036907196044922,17.521663665771484
1710958226732324600,13.06532470703125,10.003552436828613,-20.35478401184082,36.090431213378906
1710958226790230000,13.12322998046875,7.335626125335693,-7.391871452331543,35.27716064453125
1710958226848135200,13.18113525390625,1.6705265045166016,6.551703453063965,26.931161880493164
1710958226906040600,13.23904052734375,2.506300926208496,13.168172836303711,20.247426986694336
1710958226963946000,13.296946044921874,4.4509992599487305,18.130313873291016,9.392765998840332
1710958227021851400,13.354851318359374,-2.7727198600769043,24.478744506835938,17.071922302246094
1710958227079756800,13.4127568359375,-5.782581806182861,16.018531799316406,20.521385192871094
1710958227137662000,13.470661865234375,5.091958522796631,2.4633607864379883,20.394794464111328
1710958227195567400,13.5285673828125,6.705685138702393,-9.237470626831055,30.333412170410156
1710958227253472800,13.58647265625,6.385415077209473,-26.019922256469727,40.02009582519531
1710958227311378200,13.644378173828125,8.26662826538086,-30.691654205322266,23.974365234375
1710958227369283600,13.70228369140625,0.7415854334831238,-31.425716400146484,7.133906364440918
1710958227427189000,13.76018896484375,-2.9946460723876953,-37.65346145629883,-6.7884931564331055
1710958227485094100,13.81809423828125,-6.70221471786499,-37.35725021362305,-12.180374145507812
1710958227542999600,13.87599951171875,4.161151885986328,-31.27286720275879,7.889671802520752
1710958227600905000,13.933905029296875,6.908652305603027,-27.49827766418457,26.127328872680664
1710958227658810400,13.991810302734375,8.166573524475098,-22.479211807250977,36.306358337402344
1710958227716715800,14.0497158203125,9.152763366699219,-8.59634017944336,42.77565383911133
1710958227774621200,14.10762109375,4.563547611236572,10.463536262512207,32.64177703857422
1710958227832526600,14.165526611328126,5.879763126373291,16.498218536376953,18.26936912536621
1710958227890432000,14.223431884765626,-2.205291271209717,24.834442138671875,11.196849822998047
1710958227948337200,14.281337158203126,-2.6389853954315186,22.95220184326172,15.693397521972656
1710958228006242600,14.33924267578125,3.5411486625671387,11.32324504852295,15.967504501342773
1710958228064148000,14.39714794921875,5.284063816070557,1.7892208099365234,19.390838623046875
1710958228122053400,14.455053466796874,4.975344657897949,-8.935750961303711,31.630098342895508
1710958228179958800,14.512958740234374,3.684363603591919,-23.119977951049805,37.874229431152344
1710958228237864200,14.5708642578125,6.634652137756348,-25.967552185058594,23.436992645263672
1710958228295769600,14.62876953125,-0.7083239555358887,-28.81737518310547,8.002260208129883
1710958228353675000,14.686675048828125,0.5317914485931396,-30.528871536254883,-7.22679328918457
1710958228411580400,14.744580322265625,1.2655067443847656,-30.36554527282715,-13.983196258544922
1710958228469485600,14.802485595703125,2.299805164337158,-28.110811233520508,2.4481401443481445
1710958228527391200,14.86039111328125,2.137171745300293,-23.47523307800293,17.337142944335938
1710958228585296400,14.91829638671875,4.777312278747559,-22.394378662109375,29.317718505859375
1710958228643201800,14.976201904296875,5.251467704772949,-12.307310104370117,31.473175048828125
1710958228701107200,15.034107177734375,5.190153121948242,0.9414587020874023,24.67066192626953
1710958228759012600,15.0920126953125,5.389462471008301,10.305648803710938,20.631427764892578
1710958228816918000,15.14991796875,5.514630317687988,17.216833114624023,16.731586456298828
1710958228874823400,15.207823486328126,1.8843884468078613,18.5101261138916,16.437053680419922
1710958228932728800,15.265728759765626,3.666354179382324,11.5156831741333,16.537763595581055
1710958228990634200,15.32363427734375,8.455618858337402,2.7893362045288086,17.0561466217041
1710958229048539600,15.38153955078125,6.873635292053223,-8.870172500610352,22.091768264770508
1710958229106445000,15.439445068359374,3.904092311859131,-23.98291015625,28.860435485839844
1710958229164350500,15.4973505859375,2.483825922012329,-25.447193145751953,16.395126342773438
1710958229222255900,15.555255859375,1.1275132894515991,-27.026527404785156,1.6471261978149414
1710958229280161300,15.613161376953125,-0.25950098037719727,-29.300661087036133,-14.134742736816406
1710958229338066700,15.671066650390625,2.312533378601074,-30.26807975769043,-15.59170150756836
1710958229395971800,15.728971923828125,1.5773037672042847,-28.27568817138672,-2.355025291442871
1710958229453877200,15.786877197265625,2.9663195610046387,-25.269973754882812,16.174327850341797
1710958229511782700,15.84478271484375,4.581130027770996,-21.103973388671875,30.612621307373047
1710958229569688000,15.90268798828125,6.76946496963501,-7.489496231079102,30.95163345336914
1710958229627593500,15.960593505859375,2.9892001152038574,5.720724582672119,25.038394927978516
1710958229685499000,16.018498779296873,6.1446380615234375,14.983238220214844,19.136714935302734
1710958229743404300,16.076404296875,6.750022888183594,21.401769638061523,9.52779483795166
1710958229801309700,16.134309814453125,3.3743085861206055,21.35342788696289,12.961465835571289
1710958229859215000,16.192215087890624,6.0629496574401855,14.073396682739258,14.771896362304688
1710958229917120500,16.25012060546875,8.902241706848145,4.558620452880859,16.68571662902832
1710958229975026000,16.30802587890625,7.269681930541992,-2.593822479248047,29.794462203979492
1710958230032931300,16.365931396484374,4.032962322235107,-14.916303634643555,41.027610778808594
1710958230090836700,16.423836669921876,2.1688826084136963,-21.13296127319336,33.13179016113281
1710958230148742100,16.4817421875,1.1918864250183105,-27.141931533813477,17.279985427856445
1710958230206647600,16.5396474609375,-4.690698623657227,-31.525196075439453,0.3740939497947693
1710958230264552700,16.597552734375,-3.992527484893799,-35.77534103393555,-15.223301887512207
1710958230322458400,16.655458251953124,0.3334936499595642,-33.27333068847656,5.711966514587402
1710958230380363800,16.71336376953125,1.827999234199524,-25.169971466064453,19.634544372558594
1710958230438269000,16.77126904296875,5.500525951385498,-24.086423873901367,38.227806091308594
1710958230496174300,16.82917431640625,2.0924465656280518,-12.857857704162598,39.636627197265625
1710958230554079700,16.887079833984377,5.250150680541992,1.2157831192016602,32.510501861572266
1710958230611985200,16.944985107421875,8.202852249145508,15.162212371826172,21.88881492614746
1710958230669890600,17.002890625,9.058698654174805,21.501338958740234,12.068684577941895
1710958230727796000,17.0607958984375,10.2840576171875,23.11924934387207,16.859838485717773
1710958230785701400,17.118701416015625,11.498165130615234,13.055654525756836,13.311362266540527
1710958230843606800,17.176606689453124,7.3587751388549805,3.800445795059204,18.6781063079834
1710958230901512200,17.23451220703125,7.179423809051514,-7.4373016357421875,30.56031036376953
1710958230959417600,17.29241748046875,3.816056251525879,-23.461137771606445,40.412784576416016
1710958231017323000,17.350322998046874,3.399932861328125,-25.98621368408203,25.223690032958984
1710958231075228400,17.408228515625,3.9235787391662598,-26.79990005493164,9.083309173583984
1710958231133133800,17.4661337890625,-0.764206051826477,-28.834686279296875,-3.379746913909912
1710958231191039200,17.524039306640624,-2.341521739959717,-32.63855743408203,-16.85194206237793
1710958231248944400,17.5819443359375,2.44940185546875,-33.343082427978516,-2.8570821285247803
1710958231306849800,17.639849853515624,3.114274740219116,-28.080961227416992,12.622516632080078
1710958231364755200,17.697755126953126,5.845399379730225,-32.8141975402832,29.49026107788086
1710958231422660600,17.75566064453125,6.872467041015625,-25.06753158569336,46.5567741394043
1710958231480566000,17.81356591796875,1.9404126405715942,-0.6733684539794922,34.94717025756836
1710958231538471400,17.871471435546876,4.349409580230713,9.212074279785156,24.9630069732666
1710958231596376800,17.929376953125,11.656294822692871,18.549880981445312,12.85942554473877
1710958231654282200,17.9872822265625,3.1286513805389404,19.785552978515625,13.557904243469238
1710958231712187600,18.045187744140627,4.127732753753662,17.878604888916016,8.439213752746582
1710958231770093000,18.103093017578125,8.549213409423828,10.827310562133789,13.122142791748047
1710958231827998500,18.16099853515625,7.195577621459961,3.540694236755371,23.227306365966797
1710958231885904000,18.21890380859375,13.033122062683105,-8.306742668151855,39.99641418457031
1710958231943809000,18.27680908203125,15.653892517089844,-20.296070098876953,41.453857421875
1710958232001714400,18.33471435546875,8.547231674194336,-26.30831527709961,25.276512145996094
1710958232059619800,18.392619873046876,7.358850479125977,-28.54071044921875,13.538360595703125
1710958232117525200,18.450525146484374,-1.6203069686889648,-30.52339744567871,-4.392335414886475
1710958232175430700,18.5084306640625,-2.935919761657715,-29.426860809326172,-11.347540855407715
1710958232233336000,18.566336181640626,2.0608606338500977,-28.481416702270508,4.09011697769165
1710958232291241500,18.624241455078124,8.318334579467773,-29.981204986572266,16.952823638916016
1710958232349147000,18.68214697265625,12.771056175231934,-31.703704833984375,43.60696792602539
1710958232407052000,18.740052001953124,7.253238201141357,-15.508708000183105,47.26798629760742
1710958232464957400,18.79795751953125,-1.2992877960205078,6.944862365722656,27.627607345581055
1710958232522862800,18.85586279296875,2.872358560562134,15.749988555908203,21.422447204589844
1710958232580768300,18.913768310546875,2.507927894592285,29.348651885986328,31.137310028076172
1710958232638673700,18.971673583984376,0.6147335171699524,18.703493118286133,14.61669921875
1710958232696579000,19.0295791015625,9.00124740600586,8.567228317260742,14.801968574523926
1710958232754484200,19.087484130859377,11.765653610229492,-2.4227852821350098,24.64202117919922
1710958232812389600,19.1453896484375,13.450347900390625,-21.02649688720703,44.35098648071289
1710958232870295000,19.203294921875,11.136900901794434,-25.37589454650879,37.689056396484375
1710958232928200400,19.261200439453123,2.3897416591644287,-31.659881591796875,20.99726104736328
1710958232986105900,19.31910595703125,-0.4319889545440674,-32.54887008666992,4.530669212341309
1710958233044011000,19.377010986328123,-4.64572811126709,-36.02344512939453,-15.688446044921875
1710958233101916400,19.43491650390625,2.459110736846924,-30.865346908569336,-6.743650436401367
1710958233159821800,19.49282177734375,5.725315093994141,-25.11353874206543,10.519607543945312
1710958233217727200,19.550727294921874,10.38170337677002,-25.312089920043945,25.114261627197266
1710958233275632600,19.608632568359376,8.424369812011719,-19.29242706298828,41.76390838623047
1710958233333537800,19.666537841796874,6.817455291748047,1.5692167282104492,40.0982780456543
1710958233391443200,19.724443115234376,0.948334276676178,17.10711669921875,27.832046508789062
1710958233449348600,19.7823486328125,3.555154323577881,11.217083930969238,6.99990177154541
1710958233507254000,19.84025390625,-4.098657608032227,16.455928802490234,9.014054298400879
1710958233565159200,19.8981591796875,-8.175535202026367,16.90483283996582,12.420369148254395
1710958233623064600,19.956064697265624,-2.334970474243164,9.448673248291016,14.203676223754883
1710958233680970000,20.013969970703126,4.360358715057373,-0.6737022399902344,18.249675750732422
1710958233738875400,20.07187548828125,10.963798522949219,-10.98126220703125,22.843685150146484
1710958233796780500,20.129780517578126,5.663254737854004,-22.441574096679688,30.216434478759766
1710958233854686000,20.18768603515625,0.7552490234375,-25.028846740722656,19.49739646911621
1710958233912591400,20.24559130859375,1.2807812690734863,-21.4776554107666,8.744029998779297
1710958233970496500,20.30349658203125,2.5377132892608643,-19.739702224731445,1.3149089813232422
1710958234028402000,20.36140185546875,-3.2796971797943115,-22.57186508178711,-9.443204879760742
1710958234086307300,20.419307373046873,0.5564700365066528,-27.84071922302246,-20.24155616760254
1710958234144212700,20.477212646484375,-0.2712053060531616,-30.644420623779297,-2.6609039306640625
1710958234202118000,20.535117919921873,3.960878372192383,-27.599903106689453,16.56287384033203
1710958234260023300,20.593023193359375,9.96391487121582,-30.947681427001953,28.02777862548828
1710958234317928700,20.6509287109375,8.617349624633789,-19.18987274169922,35.48527526855469
1710958234375833900,20.708833740234375,3.8221983909606934,-0.8332624435424805,28.049407958984375
1710958234433739300,20.7667392578125,7.541334629058838,9.999129295349121,23.355886459350586
1710958234491644700,20.824644775390624,13.948671340942383,16.05009651184082,17.104883193969727
1710958234549549800,20.8825498046875,8.346433639526367,16.26793670654297,16.946346282958984
1710958234607455200,20.940455322265624,4.882834434509277,8.453462600708008,16.7529239654541
1710958234665360600,20.998360595703126,4.25157356262207,-1.5659356117248535,20.602352142333984
1710958234723265800,21.056265869140624,3.4794363975524902,-18.0101261138916,34.063209533691406
1710958234781171200,21.114171142578126,2.319683074951172,-29.791542053222656,31.143840789794922
1710958234839076600,21.17207666015625,-0.7526472806930542,-28.14993667602539,20.053197860717773
1710958234896981800,21.229981689453126,-0.3443254828453064,-27.267093658447266,6.726184368133545
1710958234954887200,21.28788720703125,-6.511026859283447,-34.88984680175781,-13.922595024108887
1710958235012792600,21.34579248046875,0.25625646114349365,-34.587425231933594,-22.476024627685547
1710958235070697700,21.40369775390625,-6.8424835205078125,-31.60689926147461,6.462793827056885
1710958235128603100,21.46160302734375,1.4745427370071411,-27.004966735839844,19.021560668945312
1710958235186508500,21.519508544921877,4.221867084503174,-30.365833282470703,39.2767219543457
1710958235244413700,21.57741357421875,1.5426119565963745,-9.895051956176758,35.41001892089844
1710958235302319000,21.635319091796877,-7.845365047454834,5.028800010681152,24.754779815673828
1710958235360224500,21.693224609375,-1.5593411922454834,15.077352523803711,16.332775115966797
1710958235418129700,21.751129638671873,-1.0449557304382324,20.239120483398438,18.601423263549805
1710958235476035000,21.80903515625,3.284214496612549,15.414443969726562,18.180017471313477
1710958235533940500,21.8669404296875,6.815576553344727,5.669581413269043,19.791812896728516
1710958235591845600,21.924845703125,1.4725227355957031,-6.243156909942627,22.75787353515625
1710958235649751000,21.9827509765625,1.7555270195007324,-24.88382911682129,33.065765380859375
1710958235707656400,22.040656494140624,5.489748954772949,-32.66676330566406,28.157821655273438
1710958235765561600,22.0985615234375,3.118772029876709,-30.847553253173828,11.895092010498047
1710958235823467000,22.156467041015624,1.6401103734970093,-28.800209045410156,-3.6780433654785156
1710958235881372400,22.214372314453126,-2.021834373474121,-31.252113342285156,-22.585329055786133
1710958235939277600,22.272277587890624,0.7351342439651489,-29.994449615478516,-20.11978530883789
1710958235997183000,22.330182861328126,0.0948716402053833,-26.292530059814453,6.265753746032715
1710958236055088000,22.388088134765624,-0.08251982927322388,-27.349536895751953,21.66403579711914
1710958236112993500,22.44599365234375,4.229088306427002,-24.33951759338379,31.312191009521484
1710958236170899000,22.50389892578125,5.029410362243652,-5.171938896179199,24.71839714050293
1710958236228804000,22.56180419921875,2.207369804382324,-0.030739784240722656,17.781091690063477
1710958236286709500,22.61970947265625,1.9733806848526,11.07442569732666,14.492895126342773
1710958236344615000,22.677614990234375,2.304431915283203,18.885316848754883,27.741485595703125
1710958236402520000,22.73552001953125,8.000633239746094,9.583829879760742,15.21074390411377
1710958236460425500,22.793425537109375,4.087137222290039,2.3948540687561035,15.290410995483398
1710958236518330600,22.85133056640625,2.269350528717041,-6.129238128662109,20.228111267089844
1710958236576236000,22.909236083984375,2.9470102787017822,-23.84646224975586,34.56398010253906
1710958236634141400,22.967141357421873,-0.17382267117500305,-29.743810653686523,26.256452560424805
1710958236692046600,23.025046630859375,-1.2973357439041138,-30.397014617919922,7.416231155395508
1710958236749952000,23.082951904296873,-5.573192596435547,-36.69427490234375,-11.362847328186035
1710958236807857200,23.140857177734375,-1.6262891292572021,-43.08420944213867,-39.9063835144043
1710958236865762600,23.198762451171874,-4.509377479553223,-35.45981979370117,4.9839324951171875
1710958236923668000,23.25666796875,4.377258777618408,-31.1665096282959,20.681575775146484
1710958236981573000,23.314572998046874,5.4794392585754395,-35.571739196777344,31.295433044433594
1710958237039478500,23.372478515625,5.413193225860596,-16.601184844970703,34.73360824584961
1710958237097383700,23.4303837890625,11.356304168701172,-2.273512840270996,20.401355743408203
1710958237155289000,23.4882890625,4.582895755767822,0.6383342742919922,17.825393676757812
1710958237213194500,23.546194580078126,7.486888408660889,5.329656600952148,10.948050498962402
1710958237271099600,23.604099609375,18.05528450012207,8.426892280578613,22.4537410736084
1710958237329005000,23.662005126953126,14.02444076538086,8.144515037536621,15.90954303741455
1710958237386910200,23.71991015625,3.278001070022583,6.301173686981201,8.10702133178711
1710958237444815600,23.777815673828126,3.403555393218994,-0.45692873001098633,11.462312698364258
1710958237502720800,23.835720703125,7.730844497680664,-17.01472282409668,32.16270446777344
1710958237560626200,23.893626220703126,11.754989624023438,-36.93225860595703,47.9790153503418
1710958237618531300,23.95153125,-3.200439214706421,-32.307254791259766,14.440717697143555
1710958237676436700,24.009436767578126,-0.02458024024963379,-46.52865982055664,-10.445551872253418
1710958237734342000,24.067341796875,-3.5121023654937744,-48.67230224609375,-27.788402557373047
1710958237792247300,24.125247314453127,1.8341145515441895,-36.420162200927734,11.245126724243164
1710958237850152400,24.18315234375,8.4078369140625,-35.866546630859375,32.000186920166016
1710958237908057900,24.241057861328127,6.373363494873047,-34.27190399169922,42.69096755981445
1710958237965963000,24.298962890625,16.96772575378418,-2.454115867614746,33.08473205566406
1710958238023868400,24.356868408203123,17.663837432861328,13.907306671142578,21.675506591796875
1710958238081773600,24.414773681640625,19.209938049316406,14.551077842712402,16.77263641357422
1710958238139679000,24.472678955078123,14.67894172668457,5.738574028015137,18.28377914428711
1710958238197584100,24.530584228515625,5.690332412719727,-5.6207427978515625,26.535755157470703
1710958238255489500,24.588489501953124,-0.15445947647094727,-19.229957580566406,32.79002380371094
1710958238313394700,24.646394775390625,-0.934444785118103,-29.05514907836914,28.602294921875
1710958238371300000,24.704300048828124,0.25214654207229614,-30.827308654785156,17.26352882385254
1710958238429205200,24.762205322265626,-9.92030143737793,-37.378726959228516,-4.1124467849731445
1710958238487110700,24.820110595703124,2.8237252235412598,-35.231834411621094,-17.15848159790039
1710958238545015800,24.878015869140626,-1.2504922151565552,-28.083757400512695,-5.8219146728515625
1710958238602921000,24.9359208984375,0.0470125675201416,-19.72430419921875,4.2309370040893555
1710958238660826400,24.993826416015626,3.349191427230835,-20.812524795532227,15.52709674835205
1710958238718731500,25.0517314453125,7.268221855163574,-22.83141326904297,22.105731964111328
1710958238776636700,25.10963671875,12.665140151977539,-7.410215377807617,24.290359497070312
1710958238834542000,25.1675419921875,2.7712366580963135,5.093018054962158,23.63085174560547
1710958238892447200,25.225447265625,0.6478104591369629,11.429472923278809,16.316062927246094
1710958238950352400,25.283352294921876,7.790619850158691,14.560490608215332,14.117177963256836
1710958239008257800,25.3412578125,5.330719470977783,7.0815935134887695,14.975296020507812
1710958239066163000,25.399162841796876,5.028992652893066,-2.509732246398926,18.39614486694336
1710958239124068400,25.457068359375,1.6573430299758911,-10.433289527893066,24.35653305053711
1710958239181973500,25.514973388671876,-0.9892988204956055,-17.665546417236328,17.590930938720703
1710958239239878700,25.572878662109375,-4.747570991516113,-19.78775405883789,8.04217529296875
1710958239297783800,25.63078369140625,-7.952776908874512,-19.82891273498535,0.3838019371032715
1710958239355689200,25.688689208984375,-9.702195167541504,-22.508085250854492,-2.8676538467407227
1710958239413594400,25.746594482421877,-6.166014671325684,-20.29620361328125,-4.191723346710205
1710958239471499500,25.80449951171875,1.161144733428955,-18.531309127807617,2.8738603591918945
1710958239529405000,25.862405029296873,4.504357814788818,-17.071826934814453,10.437621116638184
1710958239587310000,25.92031005859375,6.967644214630127,-13.712553977966309,21.588624954223633
1710958239645215200,25.97821533203125,2.533390760421753,-4.739274978637695,22.151208877563477
1710958239703120400,26.036120361328123,-5.03541374206543,4.162273406982422,20.16184425354004
1710958239761025500,26.094025634765625,-3.368058204650879,11.3478364944458,14.152471542358398
1710958239818931000,26.151930908203123,2.959430694580078,16.835079193115234,10.987472534179688
1710958239876836000,26.209836181640625,6.398277282714844,13.549968719482422,12.161910057067871
1710958239934741200,26.2677412109375,5.506465911865234,7.8794074058532715,14.00914192199707
1710958239992646400,26.325646484375,7.374434947967529,0.49565792083740234,18.20886993408203
1710958240050551600,26.383551513671875,8.05389404296875,-10.699301719665527,23.589357376098633
1710958240108457000,26.44145703125,7.970857620239258,-18.973413467407227,22.49740219116211
1710958240166362000,26.499362060546876,6.360624313354492,-19.799928665161133,16.308218002319336
1710958240224267300,26.557267333984374,5.338222980499268,-22.459836959838867,6.097829341888428
1710958240282172400,26.61517236328125,4.38199520111084,-26.054691314697266,-14.495023727416992
1710958240340077600,26.67307763671875,1.8822822570800781,-27.05312728881836,-13.076624870300293
1710958240397982700,26.730982666015624,4.725345611572266,-22.633434295654297,-0.9086685180664062
1710958240455888000,26.788887939453126,5.5770368576049805,-19.413270950317383,12.733720779418945
1710958240513793000,26.84679296875,4.430678367614746,-18.170698165893555,20.831798553466797
1710958240571698200,26.9046982421875,3.22676944732666,-12.019721031188965,28.52024269104004
1710958240629603300,26.962603271484376,3.6758689880371094,1.0271272659301758,25.149478912353516
1710958240687508500,27.020508544921874,4.9348297119140625,10.677595138549805,20.276533126831055
1710958240745413600,27.07841357421875,6.820495128631592,14.435990333557129,11.151721954345703
1710958240803318800,27.13631884765625,8.855548858642578,14.123764991760254,7.269842147827148
1710958240861224000,27.194223876953124,7.711183547973633,10.821810722351074,11.03360366821289
1710958240919129000,27.252129150390626,8.521602630615234,5.270283222198486,10.43789291381836
1710958240977034200,27.3100341796875,4.352710723876953,-1.0895943641662598,15.999622344970703
1710958241034939400,27.367939453125,4.393851280212402,-11.573970794677734,23.99422836303711
1710958241092844500,27.425844482421876,0.16666415333747864,-18.393497467041016,23.349403381347656
1710958241150749700,27.483749755859375,-0.4294160008430481,-20.118131637573242,17.287071228027344
1710958241208654800,27.54165478515625,1.1007949113845825,-21.10332489013672,4.756546497344971
1710958241266560000,27.59956005859375,-0.37280237674713135,-27.90842628479004,-11.895423889160156
1710958241324465200,27.657465087890625,3.419630289077759,-26.58938217163086,-14.8694486618042
1710958241382370300,27.715370361328127,1.7115273475646973,-21.863540649414062,2.9104061126708984
1710958241440275500,27.773275390625,3.337184190750122,-18.01793670654297,10.51077938079834
1710958241498180600,27.8311806640625,5.213299751281738,-19.506837844848633,24.89914894104004
1710958241556085800,27.889085693359377,3.4286630153656006,-12.865018844604492,25.083532333374023
1710958241613991000,27.946990966796875,5.646331310272217,-3.1782894134521484,24.709657669067383
1710958241671895800,28.004895751953125,0.7573578357696533,4.6796746253967285,16.29336166381836
1710958241729801000,28.062801025390623,2.387208938598633,10.499120712280273,15.879781723022461
1710958241787706000,28.1207060546875,-0.3747156858444214,12.716623306274414,12.464909553527832
1710958241845611300,28.178611328125,2.9707813262939453,10.773577690124512,9.57192611694336
1710958241903516400,28.236516357421873,1.7880618572235107,6.083649635314941,8.778229713439941
1710958241961421600,28.294421630859375,2.050279140472412,1.2596611976623535,14.662580490112305
1710958242019326500,28.352326416015625,6.976985454559326,-7.621738433837891,19.539196014404297
1710958242077231600,28.410231689453123,7.856260776519775,-18.772727966308594,19.87010955810547
1710958242135136800,28.46813671875,2.7773423194885254,-21.435840606689453,16.24266242980957
1710958242193042000,28.5260419921875,2.4236032962799072,-20.899545669555664,7.0716047286987305
1710958242250947000,28.583947021484374,0.7108548879623413,-23.285598754882812,-1.8488998413085938
1710958242308852200,28.641852294921875,-2.015738010406494,-29.613271713256836,-18.96759033203125
1710958242366757000,28.699757080078125,-0.016141176223754883,-26.32733154296875,-12.513753890991211
1710958242424662300,28.757662353515624,0.7173157930374146,-20.550649642944336,8.405160903930664
1710958242482567400,28.8155673828125,3.3672842979431152,-19.851930618286133,15.500332832336426
1710958242540472600,28.87347265625,7.317083358764648,-17.437602996826172,25.29708480834961
1710958242598377500,28.93137744140625,5.122208595275879,-6.26460075378418,22.25973129272461
1710958242656282600,28.98928271484375,3.237698554992676,3.2376551628112793,17.554399490356445
1710958242714187800,29.047187744140626,4.257368087768555,8.286944389343262,13.221327781677246
1710958242772093000,29.105093017578124,7.52658748626709,9.156021118164062,8.920696258544922
1710958242829997800,29.162997802734374,7.91411018371582,9.51813793182373,7.684291362762451
1710958242887903000,29.220903076171876,6.9417524337768555,7.737007141113281,9.63798999786377
1710958242945808100,29.27880810546875,5.971344947814941,4.304228782653809,11.502781867980957
1710958243003713000,29.336713134765624,5.8472394943237305,-3.535062789916992,18.333110809326172
1710958243061618200,29.3946181640625,3.674232006072998,-12.961225509643555,25.442724227905273
1710958243119523300,29.4525234375,2.7679121494293213,-18.3572998046875,25.416385650634766
1710958243177428200,29.51042822265625,2.8554837703704834,-22.27330207824707,10.665420532226562
1710958243235333400,29.56833349609375,1.6949471235275269,-23.340816497802734,-6.675066947937012
1710958243293238500,29.626238525390626,1.0995464324951172,-27.921756744384766,-14.5613374710083
1710958243351143700,29.684143798828124,0.18872666358947754,-25.508304595947266,-9.079849243164062
1710958243409048600,29.742048583984374,-1.5100473165512085,-18.460315704345703,4.457976341247559
1710958243466953700,29.79995361328125,5.212833404541016,-16.077129364013672,9.596404075622559
1710958243524859000,29.85785888671875,4.221614360809326,-13.411876678466797,26.530189514160156
1710958243582763800,29.915763671875,7.162253379821777,-7.367522239685059,35.79534912109375
1710958243640669000,29.9736689453125,-0.4722800552845001,10.872511863708496,19.670944213867188
1710958243698574000,30.031573974609376,0.6420830488204956,17.956026077270508,7.442267894744873
1710958243756479000,30.08947900390625,1.5150452852249146,23.74715232849121,-3.645862579345703
1710958243814384000,30.147384033203124,6.258674621582031,18.058439254760742,8.128311157226562
1710958243872289000,30.2052890625,12.180522918701172,9.06982421875,7.514284133911133
1710958243930194200,30.263194091796876,7.750180244445801,-0.4018104076385498,34.95528793334961
1710958243988099300,30.321099365234375,7.612379550933838,-15.588033676147461,42.66194152832031
1710958244046004200,30.379004150390625,-0.5676812529563904,-24.259191513061523,19.536643981933594
1710958244103909400,30.436909423828126,-2.939812183380127,-33.87917709350586,-5.875488758087158
1710958244161814300,30.494814208984376,0.28591108322143555,-34.94267654418945,-17.7611141204834
1710958244219719400,30.552719482421875,-0.1525973081588745,-23.456769943237305,-6.888298988342285
1710958244277624600,30.61062451171875,-0.9870613813400269,-12.390432357788086,2.312734603881836
1710958244335529500,30.668529541015626,2.121706247329712,-11.025641441345215,16.759815216064453
1710958244393434600,30.7264345703125,5.963526248931885,-8.411535263061523,25.219654083251953
1710958244451339800,30.78433984375,6.928125858306885,0.04275321960449219,30.649667739868164
1710958244509244700,30.84224462890625,-4.037626266479492,12.159045219421387,10.363277435302734
1710958244567149800,30.90014990234375,-4.582326412200928,18.716758728027344,0.8811535835266113
1710958244625054700,30.9580546875,-4.433323860168457,20.219823837280273,-0.36719560623168945
1710958244682960000,31.0159599609375,-1.0516102313995361,14.465997695922852,7.501929759979248
1710958244740864800,31.07386474609375,6.109080791473389,3.368156909942627,13.29559326171875
1710958244798770000,31.13177001953125,8.055512428283691,-10.141693115234375,24.79928207397461
1710958244856674800,31.1896748046875,4.850574016571045,-19.10590934753418,18.269697189331055
1710958244914580000,31.247580078125,0.7359960675239563,-14.837695121765137,3.0943126678466797
1710958244972485000,31.305485107421877,-0.43335631489753723,-14.251646041870117,-4.702882289886475
1710958245030390000,31.36339013671875,-1.9965864419937134,-14.050460815429688,-9.343698501586914
1710958245088295200,31.421295166015625,-3.263756513595581,-15.611286163330078,-10.644462585449219
1710958245146200000,31.479199951171875,-3.2739219665527344,-14.629770278930664,-8.687374114990234
1710958245204105200,31.537105224609373,-1.9567537307739258,-5.575038909912109,11.286470413208008
1710958245262010000,31.595010009765623,2.605245590209961,3.3560404777526855,17.441429138183594
1710958245319915300,31.652915283203125,2.5605318546295166,5.230320930480957,8.89719295501709
1710958245377820200,31.710820068359375,-1.8419427871704102,5.879037857055664,-0.7476062774658203
1710958245435725300,31.768725341796873,1.2648162841796875,8.76124382019043,-1.2324004173278809
1710958245493630200,31.826630126953123,2.3278450965881348,12.957610130310059,-6.869068622589111
1710958245551535400,31.884535400390625,-3.300515651702881,13.710624694824219,2.850926399230957
1710958245609440300,31.942440185546875,2.370483160018921,11.121343612670898,14.063036918640137
1710958245667345400,32.00034545898438,9.350775718688965,3.779573678970337,29.51654624938965
1710958245725250300,32.05825024414062,5.755642890930176,-5.634556770324707,18.219310760498047
1710958245783155500,32.11615551757812,2.4490573406219482,-13.109378814697266,1.9538474082946777
1710958245841060400,32.174060302734375,-0.7987387180328369,-16.175884246826172,-7.606017589569092
1710958245898965500,32.23196557617187,-0.022882938385009766,-20.740184783935547,-6.07169246673584
1710958245956870400,32.28987036132813,0.0202178955078125,-18.407569885253906,-9.736149787902832
1710958246014775600,32.347775634765625,-1.9499726295471191,-14.721769332885742,0.7188658714294434
1710958246072680400,32.40568041992187,0.39403146505355835,-4.404567241668701,13.672391891479492
1710958246130585600,32.46358569335938,3.704084634780884,1.4824424982070923,20.007854461669922
1710958246188490500,32.521490478515624,2.9589178562164307,3.3717308044433594,11.42135238647461
1710958246246395600,32.57939575195312,-0.49928849935531616,5.138430595397949,11.307127952575684
1710958246304300500,32.637300537109375,-0.6379253268241882,16.46698760986328,-3.8445334434509277
1710958246362205700,32.695205810546874,2.6728129386901855,16.79881477355957,4.666871070861816
1710958246420110600,32.75311059570313,-1.0506614446640015,15.200536727905273,1.2211112976074219
1710958246478015700,32.811015625,5.476325988769531,6.566717147827148,8.468865394592285
1710958246535920600,32.86892065429687,7.562455654144287,-2.661019802093506,24.786453247070312
1710958246593825800,32.92682568359375,4.978604316711426,-8.302875518798828,20.243270874023438
1710958246651730700,32.984730712890624,-0.9749971628189087,-12.90654182434082,2.173778533935547
1710958246709635800,33.0426357421875,-2.703176259994507,-13.557857513427734,-5.715033531188965
1710958246767540700,33.100540771484376,0.4497894048690796,-19.67116355895996,-11.23838996887207
1710958246825445600,33.15844555664062,1.0747241973876953,-18.706575393676758,-13.4332275390625
1710958246883350800,33.21635083007813,-1.3164160251617432,-18.101945877075195,-2.8489298820495605
1710958246941255700,33.274255615234374,1.7872142791748047,-17.014171600341797,12.835269927978516
1710958246999160800,33.33216088867187,2.8015432357788086,-14.514497756958008,27.80087661743164
1710958247057065700,33.390065673828126,-0.15217259526252747,-0.5026836395263672,25.528331756591797
1710958247114971000,33.447970947265624,-6.566074371337891,10.880271911621094,12.358097076416016
1710958247172875800,33.50587573242188,-6.743307113647461,19.464740753173828,4.527392387390137
1710958247230780700,33.56378076171875,-7.752685546875,19.421939849853516,7.989060401916504
1710958247288685800,33.62168579101562,-5.970920562744141,18.06363296508789,9.777002334594727
1710958247346590700,33.6795908203125,1.4293984174728394,6.626288414001465,18.005184173583984
1710958247404496000,33.737495849609374,3.9984679222106934,-10.965975761413574,30.531673431396484
1710958247462400800,33.79540087890625,5.2264862060546875,-22.947952270507812,23.031570434570312
1710958247520306000,33.853305908203126,1.4220011234283447,-17.90108299255371,1.1753053665161133
1710958247578210800,33.9112109375,1.4240663051605225,-15.060148239135742,-5.343518257141113
1710958247636116000,33.96911596679688,1.4788000583648682,-18.176149368286133,-7.432035446166992
1710958247694020900,34.027020751953124,0.05596911907196045,-19.891712188720703,-11.606842041015625
1710958247751925800,34.08492578125,0.16090309619903564,-16.32843017578125,-5.313530921936035
1710958247809831000,34.142830810546876,-2.5977230072021484,-11.489583015441895,6.560876846313477
1710958247867735800,34.20073583984375,-0.6593954563140869,-7.515334129333496,20.67520523071289
1710958247925640700,34.258640625,4.579468250274658,2.7712290287017822,13.390901565551758
1710958247983545900,34.3165458984375,5.467804908752441,14.851860046386719,6.51502799987793
1710958248041450800,34.37445068359375,-3.773266553878784,21.614246368408203,-0.4491720199584961
1710958248099355600,34.432355712890626,-2.1285462379455566,16.222251892089844,-6.695147514343262
1710958248157260800,34.4902607421875,2.03108286857605,10.498047828674316,-0.41951560974121094
1710958248215165700,34.54816577148438,6.695056438446045,8.00013256072998,12.544107437133789
1710958248273070600,34.606070556640624,3.2779645919799805,3.1460628509521484,25.47797203063965
1710958248330975700,34.66397583007812,1.9239144325256348,-4.159955024719238,15.451669692993164
1710958248388880600,34.721880615234376,1.3222472667694092,-13.646852493286133,-0.8357844352722168
1710958248446785500,34.77978564453125,0.4474313259124756,-15.663711547851562,-9.635440826416016
1710958248504690700,34.83769067382813,1.1824078559875488,-16.81513786315918,-6.258846759796143
1710958248562595600,34.895595703125,0.7894533276557922,-14.470279693603516,-7.6569905281066895
1710958248620500500,34.95350048828125,-0.7792524099349976,-13.624645233154297,-0.8142457008361816
1710958248678405600,35.011405517578126,2.602468252182007,-10.790360450744629,11.000909805297852
1710958248736310500,35.069310546875,5.7289276123046875,-4.032567501068115,23.837549209594727
1710958248794215400,35.12721533203125,2.692079544067383,2.760984420776367,23.00345802307129
1710958248852120300,35.185120361328124,-5.595104217529297,11.789945602416992,6.6324357986450195
1710958248910025500,35.243025390625,-7.765352249145508,20.807106018066406,1.4177346229553223
1710958248967930400,35.300930419921876,-6.133729457855225,21.065113067626953,-3.5291085243225098
1710958249025835300,35.35883520507812,0.5809957981109619,14.413207054138184,1.8274164199829102
1710958249083740200,35.416740234375,10.01991081237793,5.097131729125977,13.068644523620605
1710958249141645300,35.474645263671874,7.3884806632995605,-7.554768085479736,33.540321350097656
1710958249199550200,35.53255029296875,0.8288699388504028,-11.711200714111328,14.299919128417969
1710958249257455000,35.590455078125,-0.49989861249923706,-15.441282272338867,-2.488734722137451
1710958249315360000,35.64836010742187,-0.7412703037261963,-15.308408737182617,-11.091632843017578
1710958249373265200,35.70626513671875,0.7600888609886169,-15.5271577835083,-7.714075565338135
1710958249431170000,35.764170166015624,-0.2336949110031128,-13.083671569824219,-7.709743499755859
1710958249489075000,35.82207495117188,-0.3048079013824463,-11.007411003112793,-2.9232115745544434
1710958249546979800,35.879979736328124,1.4636485576629639,-9.914473533630371,10.05878734588623
1710958249604885000,35.93788500976562,4.344274997711182,-3.8224246501922607,23.416587829589844
1710958249662790000,35.995789794921876,5.513204574584961,2.9145925045013428,14.975780487060547
1710958249720694800,36.05369482421875,-2.3152122497558594,8.704976081848145,2.591958999633789
1710958249778599700,36.111599609375,1.3024437427520752,17.347925186157227,2.1900291442871094
1710958249836504600,36.169504638671874,6.186319828033447,16.866924285888672,-0.8772201538085938
1710958249894409500,36.22740942382813,4.618603229522705,12.869390487670898,-2.75636625289917
1710958249952314600,36.285314697265626,3.9005086421966553,7.295844078063965,7.509382247924805
1710958250010219500,36.34321948242187,2.7933008670806885,-3.90510892868042,28.231582641601562
1710958250068124400,36.40112451171875,2.302799701690674,-10.223016738891602,24.20137596130371
1710958250126029300,36.459029296875,4.760904312133789,-12.106182098388672,4.654764175415039
1710958250183934200,36.51693432617188,0.2690902650356293,-14.251945495605469,-6.669948101043701
1710958250241839000,36.574839111328124,-1.9632494449615479,-18.5112361907959,-11.370689392089844
1710958250299744000,36.63274389648438,-0.9403331875801086,-17.738710403442383,-13.042587280273438
1710958250357649200,36.690649169921876,-0.2813977003097534,-13.241765022277832,-5.374026298522949
1710958250415554000,36.74855395507812,-0.47539079189300537,-10.814967155456543,5.622376441955566
1710958250473459000,36.806458984375,-2.287909507751465,-6.404595375061035,15.96845531463623
1710958250531363800,36.86436376953125,6.515760898590088,-3.568882703781128,23.974666595458984
1710958250589268700,36.92226879882813,0.2149927020072937,6.857146263122559,14.43210220336914
1710958250647173600,36.980173583984374,3.9154112339019775,13.394064903259277,9.556990623474121
1710958250705078500,37.03807861328125,-2.2773852348327637,18.86008644104004,-2.907099485397339
1710958250762983400,37.0959833984375,-7.0503764152526855,17.51132583618164,1.430863380432129
1710958250820888600,37.153888671875,-1.9112355709075928,11.612592697143555,6.586767673492432
1710958250878793500,37.21179345703125,5.771637916564941,0.4294137954711914,20.018821716308594
1710958250936698400,37.269698486328124,5.671020984649658,-10.31452751159668,26.65404510498047
1710958250994603300,37.32760327148438,5.587070465087891,-15.3997163772583,16.059803009033203
1710958251052508200,37.385508056640624,-1.6773009300231934,-16.83167266845703,-7.06826114654541
1710958251110413000,37.4434130859375,-2.975752115249634,-18.45383071899414,-10.965551376342773
1710958251168318000,37.50131787109375,-0.22024857997894287,-15.83045768737793,-12.34610652923584
1710958251226222800,37.55922290039062,-0.36842721700668335,-12.513490676879883,-7.2503814697265625
1710958251284127700,37.617127685546876,-0.4934190511703491,-12.110438346862793,1.4748716354370117
1710958251342032600,37.67503271484375,1.7486166954040527,-9.439323425292969,11.171470642089844
1710958251399937500,37.7329375,2.675755262374878,-3.829000473022461,13.099611282348633
1710958251457842400,37.790842529296874,1.5483899116516113,2.179616928100586,14.025041580200195
1710958251515747300,37.84874731445313,-0.4677232503890991,9.703768730163574,7.604785442352295
1710958251573652200,37.90665234375,-0.02006518840789795,13.19491195678711,4.6808390617370605
1710958251631557000,37.96455712890625,6.371033191680908,13.77335262298584,9.181793212890625
1710958251689462000,38.0224619140625,7.325484275817871,10.106744766235352,7.98651647567749
1710958251747367000,38.08036694335937,6.708007335662842,6.591623306274414,11.62639331817627
1710958251805271800,38.138271728515626,5.677797794342041,-1.2194948196411133,11.34384536743164
1710958251863176700,38.1961767578125,1.8585785627365112,-6.614065647125244,11.802206993103027
1710958251921081600,38.25408154296875,2.8656768798828125,-10.061125755310059,7.6451311111450195
1710958251978986500,38.311986572265624,0.617971658706665,-13.866548538208008,1.1044902801513672
1710958252036891400,38.36989135742188,0.9800687432289124,-14.768255233764648,-1.935622215270996
1710958252094796300,38.42779638671875,0.6263597011566162,-15.11083984375,-4.404827117919922
1710958252152701200,38.485701171875,0.7984359264373779,-12.836664199829102,-4.880280494689941
1710958252210606000,38.543606201171876,0.9984607696533203,-11.123671531677246,0.5572957992553711
1710958252268511000,38.60151098632812,1.7844891548156738,-8.498241424560547,2.851696014404297
1710958252326415600,38.65941552734375,1.8086448907852173,-5.648131370544434,7.973138809204102
1710958252384320500,38.71732055664062,2.750011682510376,-2.2678258419036865,12.090093612670898
1710958252442225400,38.775225341796876,1.787501335144043,2.0533316135406494,11.58892822265625
1710958252500130300,38.83313037109375,1.6910312175750732,5.753558158874512,8.984224319458008
1710958252558035200,38.89103515625,0.5894384384155273,8.376523971557617,6.2054524421691895
1710958252615940000,38.948940185546874,-0.9636997580528259,9.868849754333496,4.675238609313965
1710958252673845000,39.00684497070313,-0.7956842184066772,10.251067161560059,5.769158363342285
1710958252731750000,39.06475,0.4948294758796692,9.539361953735352,7.1163330078125
1710958252789654800,39.12265478515625,2.581904411315918,6.1800947189331055,7.2126946449279785
1710958252847559400,39.180559326171874,3.600400924682617,2.368129014968872,6.779184341430664
1710958252905464300,39.23846435546875,1.6981534957885742,-1.4853510856628418,8.035416603088379
1710958252963369200,39.296369140625,0.21743935346603394,-5.108579158782959,6.7947998046875
1710958253021274000,39.35427416992187,0.7877932190895081,-6.714853286743164,6.013608932495117
1710958253079179000,39.412178955078126,2.977513313293457,-9.29244613647461,4.042108535766602
1710958253137084000,39.470083984375,3.5698530673980713,-10.066970825195312,0.013608932495117188
1710958253194988500,39.527988525390626,1.343599796295166,-10.599150657653809,-2.570991039276123
1710958253252893400,39.5858935546875,1.030418038368225,-9.810698509216309,-5.346529006958008
1710958253310798300,39.64379833984375,1.6638145446777344,-9.498724937438965,-4.164109706878662
1710958253368703200,39.701703125,1.9436273574829102,-8.56197738647461,-2.482146739959717
1710958253426608000,39.75960815429688,2.048168182373047,-7.554413318634033,1.1709442138671875
1710958253484512800,39.8175126953125,0.9895639419555664,-5.807394504547119,4.246211051940918
1710958253542417700,39.87541772460938,1.0500904321670532,-4.321062088012695,5.481355667114258
1710958253600322600,39.933322509765624,2.7524664402008057,-1.3824477195739746,8.618565559387207
1710958253658227500,39.9912275390625,2.5831239223480225,2.8399252891540527,9.160243034362793
1710958253716132400,40.04913232421875,1.2070567607879639,5.66572380065918,7.116433620452881
1710958253774037000,40.107037109375,0.1828496754169464,7.8806047439575195,5.698722839355469
1710958253831942000,40.16494189453125,0.2705686688423157,9.69703483581543,4.879173278808594
1710958253889846800,40.2228466796875,0.6228880882263184,10.682647705078125,7.207200527191162
1710958253947751700,40.280751708984376,2.0169613361358643,9.24956226348877,6.632175922393799
1710958254005656300,40.33865625,3.754034996032715,5.161349296569824,6.73228120803833
1710958254063561200,40.396561279296876,3.1792728900909424,1.4253041744232178,6.683679580688477
1710958254121466000,40.45446606445312,1.6090755462646484,-2.702575206756592,8.968713760375977
1710958254179370800,40.512370849609376,0.8749419450759888,-5.413068771362305,9.106322288513184
1710958254237275600,40.57027563476562,1.7574028968811035,-7.429440975189209,5.538120269775391
1710958254295180500,40.6281806640625,4.32926082611084,-9.130302429199219,2.4541826248168945
1710958254353085200,40.68608520507812,2.6225461959838867,-9.785518646240234,-4.37945032119751
1710958254410990000,40.743989990234375,3.229151964187622,-9.880532264709473,-2.70937442779541
1710958254468895000,40.80189501953125,2.665804147720337,-9.754220962524414,-5.174578666687012
1710958254526799600,40.859799560546875,2.9905006885528564,-8.592884063720703,-4.347103595733643
1710958254584704500,40.91770458984375,1.103640079498291,-7.941216468811035,-2.8591179847717285
1710958254642609400,40.975609375,2.2357447147369385,-7.767955780029297,-1.2957792282104492
1710958254700514000,41.03351416015625,4.108723163604736,-6.75090217590332,3.3352489471435547
1710958254758419000,41.0914189453125,2.088278293609619,-5.212831020355225,5.365085601806641
1710958254816323600,41.14932348632812,1.4612244367599487,-1.983569622039795,9.302774429321289
1710958254874228500,41.207228515625,0.00975818932056427,1.1366615295410156,9.280144691467285
1710958254932133400,41.26513330078125,-0.5717630386352539,3.8416171073913574,8.144371032714844
1710958254990038000,41.3230380859375,0.4986974000930786,6.114643096923828,6.536932468414307
1710958255047943000,41.38094287109375,1.626462459564209,8.080206871032715,6.178900718688965
1710958255105847600,41.43884765625,2.3089194297790527,9.0285062789917,6.111844539642334
1710958255163752400,41.49675244140625,2.9417245388031006,8.250592231750488,7.184746265411377
1710958255221657300,41.5546572265625,2.9361181259155273,5.386946678161621,6.994969367980957
1710958255279562000,41.61256201171875,2.097276210784912,1.2994632720947266,7.380857467651367
1710958255337467000,41.670466796875,1.0155426263809204,-2.395848274230957,7.579079627990723
1710958255395371500,41.72837158203125,0.9350294470787048,-5.459345817565918,6.30097770690918
1710958255453276400,41.7862763671875,1.5248334407806396,-7.777312278747559,3.648042678833008
1710958255511181000,41.84418115234375,1.792093276977539,-8.160802841186523,1.156625747680664
1710958255569086000,41.9020859375,1.5881946086883545,-8.447368621826172,-1.3158226013183594
1710958255626990800,41.95999096679687,1.0918498039245605,-9.11427116394043,-3.6306886672973633
1710958255684895500,42.0178955078125,0.9262641072273254,-10.126111030578613,-5.999711990356445
1710958255742800400,42.07580029296875,1.5015531778335571,-9.686153411865234,-5.349081039428711
1710958255800705000,42.133705078125,0.5426680445671082,-8.158153533935547,-2.146125316619873
1710958255858610000,42.19160986328125,0.847373902797699,-7.010431289672852,-0.20696067810058594
1710958255916514600,42.2495146484375,1.2921651601791382,-5.905642986297607,3.0515432357788086
1710958255974419500,42.30741943359375,1.3074963092803955,-4.682138919830322,5.044954299926758
1710958256032324000,42.365323974609375,2.1414668560028076,-2.32830810546875,6.580174446105957
1710958256090229000,42.42322900390625,2.975400447845459,1.2288689613342285,8.50745677947998
1710958256148133600,42.481133544921875,1.5157432556152344,4.4459686279296875,7.580076217651367
1710958256206038300,42.53903833007813,1.6200332641601562,6.942298412322998,6.513411045074463
1710958256263943200,42.596943115234374,1.2143505811691284,9.274539947509766,5.435803413391113
1710958256321847800,42.65484790039063,0.29850122332572937,10.230117797851562,5.261234283447266
1710958256379752700,42.712752685546874,-0.05701702833175659,9.482508659362793,6.717713832855225
1710958256437657300,42.7706572265625,1.5816714763641357,6.8019490242004395,8.078041076660156
1710958256495562200,42.828562255859374,2.4507510662078857,2.321718692779541,8.76511001586914
1710958256553467000,42.886466796875,1.96126127243042,-2.4457645416259766,8.868518829345703
1710958256611371500,42.94437158203125,1.1195428371429443,-6.540808200836182,8.835471153259277
1710958256669276400,43.0022763671875,1.1332981586456299,-9.85435676574707,7.195635795593262
1710958256727181000,43.06018115234375,1.394662618637085,-11.911465644836426,3.0590124130249023
1710958256785086000,43.1180859375,-0.170554518699646,-12.02489185333252,-2.3798623085021973
1710958256842990600,43.17599047851562,-1.1265904903411865,-11.493206024169922,-5.097621917724609
1710958256900895200,43.233895263671876,-0.7637759447097778,-10.782785415649414,-6.983985900878906
1710958256958800100,43.29180004882812,-0.5327441692352295,-10.342915534973145,-4.033344745635986
1710958257016704800,43.349704833984376,-0.8668231964111328,-9.498066902160645,-0.11159229278564453
1710958257074609400,43.407609375,1.1846697330474854,-9.072282791137695,2.6902360916137695
1710958257132514300,43.465514404296876,3.348114013671875,-9.29541015625,6.229508399963379
1710958257190419000,43.5234189453125,4.678069591522217,-5.743389129638672,7.694280624389648
1710958257248323600,43.581323486328124,4.693397521972656,0.017743587493896484,11.480728149414062
1710958257306228500,43.639228515625,0.7139014005661011,5.5531005859375,12.406511306762695
1710958257364133000,43.697133056640624,-0.4321282207965851,9.579150199890137,10.911823272705078
1710958257422037800,43.75503784179688,-1.1795099973678589,11.665863037109375,8.958745956420898
1710958257479942700,43.812942626953124,1.6614961624145508,10.569043159484863,7.124375343322754
1710958257537847300,43.87084741210938,2.7544360160827637,7.6789045333862305,6.93974494934082
1710958257595752000,43.928751953125,3.206913948059082,3.862065553665161,7.554543495178223
1710958257653656600,43.986656494140625,2.9951248168945312,-0.2872314453125,8.799602508544922
1710958257711561500,44.0445615234375,3.1930739879608154,-4.2502851486206055,9.477273941040039
1710958257769466000,44.102466064453125,2.4399173259735107,-8.128487586975098,8.397640228271484
1710958257827370800,44.16037084960937,1.7893422842025757,-10.425946235656738,6.668951034545898
1710958257885275400,44.218275390625,1.4310060739517212,-11.458120346069336,3.7656707763671875
1710958257943180300,44.27618017578125,0.6560592651367188,-12.423884391784668,1.180739402770996
1710958258001085000,44.3340849609375,0.9746283888816833,-13.14763069152832,-4.41142463684082
1710958258058989600,44.39198950195313,-0.5462820529937744,-13.286382675170898,-5.4287567138671875
1710958258116894200,44.44989428710937,-0.3322737216949463,-12.51032829284668,-5.113141059875488
1710958258174798800,44.507798828125,0.7440751791000366,-11.18777084350586,0.15248775482177734
1710958258232703700,44.56570385742187,1.5422303676605225,-9.22092056274414,3.7279539108276367
1710958258290608400,44.6236083984375,1.993639349937439,-7.203762531280518,7.732654571533203
1710958258348513000,44.68151293945313,2.064391613006592,-3.7785587310791016,11.283534049987793
1710958258406417700,44.739417724609375,0.5050800442695618,0.9812421798706055,12.783172607421875
1710958258464322300,44.797322265625,-0.9120626449584961,4.292101860046387,11.415433883666992
1710958258522227000,44.85522705078125,2.1528732776641846,6.297733306884766,8.575531005859375
1710958258580131800,44.9131318359375,6.231943130493164,8.134421348571777,5.634444236755371
1710958258638036500,44.97103637695312,6.526495933532715,9.050312042236328,3.9996633529663086
1710958258695941000,45.028941162109376,7.256231307983398,8.891290664672852,3.8520631790161133
1710958258753845800,45.086845703125,6.913308143615723,6.380956649780273,4.300384998321533
1710958258811750400,45.14475048828125,5.507691383361816,3.4068384170532227,5.288259983062744
1710958258869655000,45.20265502929688,3.2737984657287598,-0.7295269966125488,9.282611846923828
1710958258927559700,45.2605595703125,3.3588433265686035,-5.347643852233887,9.477941513061523
1710958258985464300,45.31846435546875,3.353172540664673,-10.0645751953125,6.659331321716309
1710958259043369000,45.37636889648437,0.7631032466888428,-10.862510681152344,2.797819137573242
1710958259101273600,45.434273681640626,0.05032631754875183,-9.645898818969727,-1.1366143226623535
1710958259159178200,45.49217822265625,0.7533419132232666,-10.700176239013672,-1.1041769981384277
1710958259217083000,45.550082763671874,0.3496881425380707,-11.964753150939941,-1.460052490234375
1710958259274987500,45.60798754882813,-0.07690346240997314,-11.280000686645508,-3.764077663421631
1710958259332892200,45.66589208984375,-0.501565158367157,-9.273799896240234,-2.0464835166931152
1710958259390796800,45.723796875,-0.39733657240867615,-7.339936256408691,0.8093299865722656
1710958259448701400,45.78170141601562,-0.3392218351364136,-7.2118401527404785,3.290707588195801
1710958259506606000,45.839606201171875,2.36135196685791,-6.693975925445557,8.978078842163086
1710958259564510700,45.8975107421875,5.620297908782959,-1.4972214698791504,12.282537460327148
1710958259622415400,45.95541528320312,5.036579132080078,4.031490325927734,10.890348434448242
1710958259680320000,46.01332006835938,3.6572837829589844,7.437958240509033,8.114006042480469
1710958259738224600,46.071224609375,4.2950544357299805,8.79180908203125,4.86664342880249
1710958259796129300,46.12912939453125,4.789275169372559,7.3344011306762695,4.415463924407959
1710958259854034000,46.18703393554687,4.871603965759277,5.995030879974365,6.8150553703308105
1710958259911938600,46.2449384765625,3.507453441619873,4.207832336425781,7.403153896331787
1710958259969843200,46.30284326171875,1.292456865310669,-1.2948966026306152,8.865657806396484
1710958260027747800,46.36074780273437,0.009608328342437744,-7.974495887756348,9.496801376342773
1710958260085652500,46.41865258789063,-0.5210714936256409,-10.555098533630371,5.897791862487793
1710958260143557000,46.47655712890625,-0.489280104637146,-11.606452941894531,1.0602397918701172
1710958260201461500,46.53446142578125,-0.7259992361068726,-12.712345123291016,-4.016363620758057
1710958260259366100,46.5923662109375,-1.957033395767212,-12.734153747558594,-7.329837322235107
1710958260317270800,46.65027075195312,-0.3217904269695282,-10.59632682800293,-7.255837440490723
1710958260375175400,46.708175537109376,1.429835319519043,-9.24896240234375,-3.0337252616882324
1710958260433080000,46.766080078125,1.124598503112793,-8.724837303161621,1.8036832809448242
1710958260490984700,46.823984619140624,3.1422762870788574,-9.543722152709961,4.43148136138916
1710958260548889300,46.88188940429688,6.0524420738220215,-9.37469482421875,7.875960826873779
1710958260606793700,46.93979370117187,6.092374324798584,-2.527489185333252,9.583749771118164
1710958260664698400,46.997698486328126,2.575888156890869,1.3579649925231934,9.389795303344727
1710958260722603000,47.05560302734375,-0.3413882255554199,4.122382640838623,10.95764446258545
1710958260780507600,47.113507568359374,-2.7932446002960205,7.782238006591797,13.485614776611328
1710958260838412000,47.171412109375,-1.5409469604492188,9.818192481994629,14.222228050231934
1710958260896316700,47.22931665039062,1.8481773138046265,6.14420223236084,12.200894355773926
1710958260954221300,47.28722119140625,2.4572486877441406,0.8016042709350586,9.324234962463379
1710958261012126000,47.3451259765625,2.4322595596313477,-4.224792003631592,9.714509963989258
1710958261070030600,47.403030517578124,3.6230599880218506,-9.374001502990723,11.035849571228027
1710958261127935000,47.46093505859375,3.0121476650238037,-13.244182586669922,7.856965065002441
1710958261185839600,47.51883959960937,2.6323904991149902,-13.31520938873291,4.3451128005981445
1710958261243744300,47.576744140625,-0.038565799593925476,-12.876089096069336,-0.6721277236938477
1710958261301648600,47.63464868164063,-1.7608453035354614,-13.277851104736328,-6.944290637969971
1710958261359553300,47.69255322265625,-1.499375581741333,-13.376640319824219,-8.74624252319336
1710958261417458000,47.7504580078125,-1.316248893737793,-12.364811897277832,-6.434089660644531
1710958261475362600,47.80836254882813,-0.5359377861022949,-12.442208290100098,-2.2634081840515137
1710958261533267000,47.86626684570312,1.2485942840576172,-11.042688369750977,4.287837028503418
1710958261591171600,47.92417163085938,3.5860228538513184,-10.114585876464844,6.971820831298828
1710958261649076200,47.982076171875,4.12989616394043,-6.78464412689209,9.945091247558594
1710958261706980600,48.039980712890625,5.030124187469482,-1.3321104049682617,12.62807846069336
1710958261764885200,48.09788525390625,0.06161721050739288,4.7592315673828125,13.002528190612793
1710958261822790000,48.15578979492187,-1.3362839221954346,10.085118293762207,12.918322563171387
1710958261880694300,48.2136943359375,-1.2130844593048096,13.15800666809082,12.813936233520508
1710958261938599000,48.27159887695313,1.5661145448684692,11.779247283935547,9.022083282470703
1710958261996503600,48.329503662109374,4.208889484405518,7.20220947265625,6.89354944229126
1710958262054408000,48.387407958984376,4.7875542640686035,2.5453903675079346,7.076757431030273
1710958262112312600,48.4453125,4.475194454193115,-1.3647375106811523,7.538944244384766
1710958262170217200,48.50321728515625,4.032327651977539,-3.9864706993103027,9.370384216308594
1710958262228121600,48.56112158203125,3.7287864685058594,-8.272377014160156,10.2535982131958
1710958262286026200,48.61902612304687,3.6751575469970703,-12.690446853637695,6.613946914672852
1710958262343931000,48.676930908203126,1.5360584259033203,-14.823843955993652,-0.40126991271972656
1710958262401835300,48.73483520507813,0.6619431972503662,-15.230169296264648,-2.887755870819092
1710958262459740000,48.792739990234374,1.0397287607192993,-15.334922790527344,-7.42308235168457
1710958262517644500,48.85064453125,0.5765724182128906,-13.921648025512695,-5.840445518493652
1710958262575549000,48.908548828125,0.4917932152748108,-11.727134704589844,2.260011672973633
1710958262633453600,48.96645361328125,2.066067695617676,-8.857596397399902,5.988874435424805
1710958262691358200,49.02435815429688,2.7736620903015137,-7.1099324226379395,9.062073707580566
1710958262749262800,49.08226293945312,3.457364797592163,-2.6590118408203125,11.443084716796875
1710958262807167200,49.140167236328125,1.231030821800232,2.046377182006836,12.78668212890625
1710958262865071900,49.19807177734375,-2.179630756378174,6.676392078399658,12.499393463134766
1710958262922976300,49.25597631835937,-1.1228859424591064,11.0462007522583,12.194662094116211
1710958262980881000,49.313880859375,2.269413948059082,10.92297649383545,9.889123916625977
1710958263038785500,49.37178564453125,2.970576763153076,8.695684432983398,8.012228012084961
1710958263096690200,49.429690185546875,2.2330482006073,5.4164628982543945,8.235638618469238
1710958263154594600,49.487594482421876,1.6741119623184204,0.5754208564758301,9.382022857666016
1710958263212499200,49.54549926757812,1.595994234085083,-4.810866355895996,10.105266571044922
1710958263270403800,49.60340380859375,2.4187068939208984,-10.089076042175293,8.673345565795898
1710958263328308200,49.66130810546875,1.1668293476104736,-11.177579879760742,3.3081798553466797
1710958263386212900,49.719212890625,1.6813406944274902,-10.93456745147705,0.8465461730957031
1710958263444117500,49.777117431640626,2.5250611305236816,-10.312149047851562,-3.045511245727539
1710958263502022000,49.83502197265625,2.432987689971924,-11.819978713989258,-6.416675567626953
1710958263559926500,49.892926513671874,4.552140235900879,-13.244665145874023,-10.030343055725098
1710958263617831200,49.9508310546875,3.4109816551208496,-12.606548309326172,-6.3362627029418945
1710958263675735800,50.00873583984375,1.3878841400146484,-11.379502296447754,0.054749488830566406
1710958263733640200,50.06664013671875,2.8504090309143066,-10.866927146911621,4.70284366607666
1710958263791544800,50.124544921875,3.1477291584014893,-8.451993942260742,8.952901840209961
1710958263849449500,50.182449462890624,2.371490001678467,-3.586778163909912,13.59539794921875
1710958263907353900,50.240353759765625,-0.3822525143623352,1.500805377960205,12.906013488769531
1710958263965258500,50.29825854492187,-2.3844330310821533,6.420356750488281,12.946269989013672
1710958264023163100,50.3561630859375,2.888098955154419,11.108407974243164,12.892587661743164
1710958264081067800,50.41406787109375,1.287327527999878,10.765756607055664,9.423710823059082
1710958264138972200,50.47197216796875,-0.9308451414108276,9.262984275817871,8.951087951660156
1710958264196876800,50.529876708984375,-0.2986709773540497,5.754560470581055,8.85543441772461
1710958264254781400,50.58778149414063,0.522494375705719,1.0576467514038086,9.59256362915039
1710958264312686000,50.64568603515625,0.9984610676765442,-4.412379264831543,10.709970474243164
1710958264370590500,50.70359057617188,0.8100584745407104,-9.060765266418457,10.574044227600098
1710958264428495000,50.7614951171875,1.5142663717269897,-11.752080917358398,7.120862007141113
1710958264486399700,50.819399658203125,2.656602621078491,-12.190139770507812,3.1001195907592773
1710958264544304400,50.87730444335938,2.295724868774414,-12.379190444946289,0.4603595733642578
1710958264602208800,50.93520874023437,0.24412283301353455,-13.831619262695312,-6.440529823303223
1710958264660113400,50.993113525390626,-0.7577424049377441,-13.986446380615234,-8.466341018676758
1710958264718018000,51.05101806640625,-0.13221299648284912,-13.355178833007812,-5.556796550750732
1710958264775922700,51.108922607421874,1.1928094625473022,-12.01461410522461,-1.2098722457885742
1710958264833827000,51.1668271484375,2.0732169151306152,-11.195901870727539,3.1882715225219727
1710958264891731700,51.22473168945312,2.045944929122925,-10.383427619934082,7.7490234375
1710958264949636400,51.28263623046875,3.4998717308044434,-8.056127548217773,12.34482192993164
1710958265007541000,51.340541015625,4.703711032867432,-2.9307870864868164,16.812747955322266
1710958265065445400,51.3984453125,1.8672879934310913,3.8764243125915527,15.708022117614746
1710958265123350000,51.45635009765625,-0.27159804105758667,9.48880386352539,12.89802360534668
1710958265181254700,51.51425463867187,3.209768772125244,12.82127571105957,10.414518356323242
1710958265239159300,51.5721591796875,3.0905890464782715,12.767012596130371,8.703927993774414
1710958265297064000,51.63006396484375,1.0284088850021362,11.420567512512207,8.916479110717773
1710958265354968300,51.68796826171875,0.4006945490837097,7.797312259674072,9.456438064575195
1710958265412873000,51.745873046875,1.7908660173416138,2.234785556793213,12.038347244262695
1710958265470777600,51.80377758789062,3.1343181133270264,-4.440187454223633,14.385894775390625
1710958265528682000,51.86168188476562,5.054595470428467,-10.70678424835205,14.73976993560791
1710958265586586600,51.91958666992188,3.5924923419952393,-14.50692081451416,10.528411865234375
1710958265644491300,51.9774912109375,2.3842804431915283,-13.914985656738281,4.683651924133301
1710958265702396000,52.03539599609375,1.393796682357788,-13.685264587402344,1.0805530548095703
1710958265760300500,52.09330053710938,-1.6029740571975708,-15.997438430786133,-1.6005034446716309
1710958265818205000,52.15120483398437,-1.6270053386688232,-16.093069076538086,-3.9345479011535645
1710958265876109600,52.20910961914063,-1.652890920639038,-14.964601516723633,-3.593336582183838
1710958265934014200,52.26701416015625,-1.3300893306732178,-14.14941120147705,-1.099350929260254
1710958265991918600,52.324918701171875,2.6924850940704346,-13.042222023010254,4.754775047302246
1710958266049823200,52.3828232421875,3.8267195224761963,-12.083874702453613,9.810194969177246
1710958266107728000,52.44072778320312,4.893377304077148,-9.540045738220215,16.041542053222656
1710958266165632500,52.498632568359376,6.744909286499023,-4.617196559906006,20.102256774902344
1710958266223537200,52.556537109375,4.655068397521973,3.083390712738037,18.548137664794922
1710958266281441500,52.614441650390624,5.993391036987305,7.972968578338623,13.056755065917969
1710958266339346200,52.67234619140625,7.783631324768066,10.49516773223877,7.481489181518555
1710958266397250800,52.73025073242187,4.83554744720459,12.428442001342773,7.4570417404174805
1710958266455155200,52.7881552734375,3.919804096221924,12.702922821044922,9.302988052368164
1710958266513059800,52.84605981445313,5.317694664001465,8.745865821838379,10.46127700805664
1710958266570964500,52.903964599609374,5.81182861328125,2.854238510131836,11.1576566696167
1710958266628869000,52.961869140625,4.972353935241699,-3.8740692138671875,13.067550659179688
1710958266686773500,53.0197734375,3.7951533794403076,-10.493731498718262,16.39740562438965
1710958266744678100,53.07767822265625,1.5891389846801758,-14.396771430969238,14.740044593811035
1710958266802582800,53.13558276367188,1.163487195968628,-17.571104049682617,14.304033279418945
1710958266860487200,53.19348706054687,1.6934840679168701,-17.666109085083008,5.527347564697266
1710958266918391800,53.251391845703125,-1.2948436737060547,-18.164308547973633,-0.6352734565734863
1710958266976296400,53.30929638671875,-1.4174432754516602,-16.602794647216797,-6.197057723999023
1710958267034200800,53.36720092773437,-0.9405865669250488,-16.073524475097656,-5.827346324920654
1710958267092105500,53.42510546875,0.04777169227600098,-14.695622444152832,-2.3402585983276367
1710958267150010000,53.48301000976563,1.7084439992904663,-12.782983779907227,3.558403968811035
1710958267207914500,53.54091455078125,2.1279211044311523,-12.128340721130371,9.114114761352539
1710958267265819100,53.59881909179688,2.897592782974243,-11.243624687194824,15.506707191467285
1710958267323723800,53.65672387695312,6.499297618865967,-5.396212577819824,16.982040405273438
1710958267381628400,53.71462841796875,3.934647798538208,1.294541358947754,18.14379119873047
1710958267439532800,53.77253271484375,2.502424955368042,6.449947357177734,14.022308349609375
1710958267497437400,53.8304375,2.536614179611206,10.780159950256348,10.339872360229492
1710958267555341800,53.888341796875,3.6443424224853516,13.609476089477539,6.9274983406066895
1710958267613246500,53.94624658203125,2.7720608711242676,14.359108924865723,8.444526672363281
1710958267671151000,54.004151123046874,2.2903711795806885,11.649081230163574,10.010454177856445
1710958267729055500,54.062055419921876,2.729625701904297,6.5471062660217285,11.837518692016602
1710958267786960100,54.11996020507812,5.088113784790039,0.019155502319335938,12.968498229980469
1710958267844864500,54.177864501953124,4.0184006690979,-7.406764984130859,17.140945434570312
1710958267902769200,54.23576904296875,0.9477663636207581,-14.447264671325684,20.33922004699707
1710958267960673800,54.293673828125,0.14451062679290771,-16.001556396484375,11.955440521240234
1710958268018578200,54.351578125,0.007573366165161133,-15.467336654663086,5.846606731414795
1710958268076482800,54.40948291015625,-3.10524320602417,-16.78557586669922,-0.9844117164611816
1710958268134387200,54.46738720703125,-3.6481118202209473,-16.798938751220703,-5.550201892852783
1710958268192291800,54.525291748046875,-2.0197348594665527,-16.657310485839844,-4.5806193351745605
1710958268250196500,54.58319653320312,-0.45077937841415405,-15.712218284606934,-3.082814931869507
1710958268308100900,54.64110083007812,0.35607218742370605,-15.309700965881348,1.0366106033325195
1710958268366005500,54.69900561523438,2.7678425312042236,-15.229729652404785,8.997371673583984
1710958268423910000,54.75690991210938,3.1257598400115967,-14.225505828857422,14.767914772033691
1710958268481814500,54.814814453125,5.319883346557617,-9.701358795166016,20.869335174560547
1710958268539719000,54.87271899414063,2.977694272994995,-2.6924448013305664,21.786815643310547
1710958268597623600,54.93062353515625,-0.5641434192657471,5.059409141540527,16.73897933959961
1710958268655528000,54.98852783203125,3.6183626651763916,9.726694107055664,13.206937789916992
1710958268713432600,55.0464326171875,5.532898426055908,11.1852445602417,10.906726837158203
1710958268771337000,55.1043369140625,6.381534576416016,11.359352111816406,11.168031692504883
1710958268829241600,55.16224169921875,6.351037979125977,8.54088306427002,10.819889068603516
1710958268887146000,55.22014599609375,6.29740571975708,3.5121726989746094,11.090448379516602
1710958268945050600,55.27805053710937,4.887004852294922,-2.1936497688293457,14.402139663696289
1710958269002955000,55.335955078125,3.067352294921875,-11.5130033493042,20.165908813476562
1710958269060859600,55.39385961914063,0.8432974815368652,-20.314559936523438,17.86606216430664
1710958269118764000,55.45176391601562,0.14359736442565918,-20.86113739013672,11.627387046813965
1710958269176668700,55.509668701171876,-2.9947335720062256,-17.960582733154297,5.49398136138916
1710958269234573000,55.56757299804688,-5.625571250915527,-15.505131721496582,2.070903778076172
1710958269292477400,55.6254775390625,-6.037526607513428,-12.856155395507812,-1.3055516481399536
1710958269350382000,55.683382080078125,-7.962629795074463,-13.526759147644043,-2.798485517501831
1710958269408286500,55.74128637695313,-7.774000644683838,-13.715682983398438,-3.596466541290283
1710958269466191000,55.79919116210937,-4.685293197631836,-15.942106246948242,0.5820341110229492
1710958269524095500,55.857095458984375,2.394531011581421,-17.668943405151367,9.340303421020508
1710958269582000000,55.91500024414062,4.203814506530762,-16.996259689331055,15.724143028259277
1710958269639904500,55.97290454101562,5.102849960327148,-14.166500091552734,21.58686065673828
1710958269697809000,56.030808837890625,2.969223737716675,-8.21597671508789,19.575809478759766
1710958269755713500,56.08871362304688,-5.114477157592773,0.691741943359375,21.117361068725586
1710958269813618000,56.14661791992187,0.9844030141830444,5.74402379989624,14.788492202758789
1710958269871522300,56.204522216796875,3.2237348556518555,9.703290939331055,15.724098205566406
1710958269929427000,56.26242700195313,4.0629096031188965,10.202892303466797,13.539443016052246
1710958269987331300,56.32033129882812,3.222219467163086,6.631387710571289,12.50439167022705
1710958270045235700,56.378235595703124,3.039217710494995,2.446002960205078,11.771639823913574
1710958270103140400,56.43614038085938,1.5780577659606934,-4.360792636871338,15.453912734985352
1710958270161044700,56.49404467773437,1.778379201889038,-15.650819778442383,19.97875213623047
1710958270218949000,56.55194921875,0.5528090000152588,-22.02914810180664,13.495767593383789
1710958270276853800,56.60985375976563,-2.279484748840332,-20.45052719116211,6.88702392578125
1710958270334758100,56.66775805664062,-5.900348663330078,-15.960478782653809,1.4146695137023926
1710958270392662500,56.72566259765625,-7.319315433502197,-12.021839141845703,-1.8126928806304932
1710958270450567000,56.78356689453125,-8.245147705078125,-9.239458084106445,-3.9858436584472656
1710958270508471600,56.84147143554687,-7.833104133605957,-6.745602130889893,-2.893603801727295
1710958270566376000,56.8993759765625,-6.1493239402771,-5.793857574462891,-2.1484436988830566
1710958270624280300,56.9572802734375,0.8702216148376465,-3.207760810852051,1.896303653717041
1710958270682184700,57.01518481445312,9.940574645996094,2.916693687438965,4.14838171005249
1710958270740089300,57.07308935546875,5.820774078369141,4.240326404571533,-0.3065507411956787
1710958270797993700,57.13099365234375,-0.6652073860168457,2.195464849472046,-0.14923095703125
1710958270855898000,57.18889819335938,-1.327059268951416,0.3763585090637207,0.9012413024902344
1710958270913802500,57.24680249023437,-1.3605494499206543,-0.2980036735534668,0.56160569190979
1710958270971707000,57.304706787109374,-3.589439868927002,-0.7538421154022217,0.47903919219970703
1710958271029611300,57.362611328125,-4.259421348571777,-1.3629543781280518,-0.45551466941833496
1710958271087516000,57.42051586914062,-0.52532958984375,-1.24063241481781,0.47092199325561523
1710958271145420300,57.478420166015624,5.212471008300781,-0.6673045754432678,1.090527057647705
1710958271203324700,57.53632470703125,-2.985678195953369,-2.152522325515747,0.47683167457580566
1710958271261229000,57.59422900390625,-4.7225422859191895,-6.084386825561523,-4.5342535972595215
1710958271319133400,57.652133544921874,1.186757206916809,-13.572242736816406,-7.7798309326171875
1710958271377037800,57.710037841796876,-5.8451337814331055,-10.503548622131348,8.582796096801758
1710958271434942500,57.7679423828125,2.567013740539551,-7.163104057312012,10.18975830078125
1710958271492846800,57.825846923828124,6.22092342376709,-5.348049163818359,5.993354320526123
1710958271550751200,57.883751220703125,-0.6264887452125549,-1.7591228485107422,10.69487476348877
1710958271608655600,57.94165551757813,-3.641448497772217,3.623915672302246,10.804397583007812
1710958271666560000,57.99956005859375,-1.6269567012786865,7.799220561981201,10.363274574279785
1710958271724464400,58.05746435546875,0.23501992225646973,9.591936111450195,8.588638305664062
1710958271782368800,58.11536865234375,1.9138774871826172,8.035449981689453,8.596522331237793
1710958271840273200,58.17327319335938,0.9986028671264648,5.169887542724609,12.534578323364258
1710958271898177500,58.23117749023437,4.576579570770264,1.140791416168213,17.02021026611328
1710958271956082000,58.28908203125,5.516432762145996,-9.290834426879883,15.914877891540527
1710958272013986300,58.346986328125,3.8041553497314453,-15.023470878601074,15.759100914001465
1710958272071890700,58.404890625,0.6008983850479126,-18.345823287963867,12.15329360961914
1710958272129795000,58.462795166015624,0.4233170449733734,-20.332822799682617,0.8500328063964844
1710958272187699500,58.520699462890626,-0.953588604927063,-19.824153900146484,-11.770198822021484
1710958272245603800,58.57860375976563,0.6706260442733765,-18.52655601501465,-13.482998847961426
1710958272303508200,58.63650830078125,0.316622257232666,-17.053531646728516,-9.662933349609375
1710958272361412600,58.69441259765625,-1.1987168788909912,-17.449079513549805,-0.24881744384765625
1710958272419317000,58.75231689453125,2.5103631019592285,-18.220760345458984,8.045366287231445
1710958272477221400,58.81022143554687,3.625486135482788,-17.172983169555664,19.93743896484375
1710958272535125800,58.86812573242187,2.6400842666625977,-7.68349552154541,20.22525978088379
1710958272593030100,58.926030029296875,4.694355010986328,0.495513916015625,17.102542877197266
1710958272650934500,58.9839345703125,6.517046928405762,5.838534355163574,12.235428810119629
1710958272708839000,59.0418388671875,7.77558708190918,9.343174934387207,10.2565336227417
1710958272766743300,59.099743408203125,5.786795139312744,10.781255722045898,8.842251777648926
1710958272824647400,59.1576474609375,4.685693740844727,9.000370979309082,8.673956871032715
1710958272882551800,59.2155517578125,5.100590705871582,5.9444379806518555,9.461797714233398
1710958272940456200,59.27345629882812,4.411768913269043,-0.40380096435546875,13.120331764221191
1710958272998360600,59.331360595703124,-0.05293095111846924,-9.434616088867188,17.660444259643555
1710958273056265000,59.389264892578126,-1.6862713098526,-14.142065048217773,14.40703010559082
1710958273114169300,59.44716943359375,-2.183727264404297,-16.515329360961914,7.397602081298828
1710958273172073700,59.50507373046875,-0.990849494934082,-16.995141983032227,1.2559757232666016
1710958273229977900,59.562977783203124,-1.4548544883728027,-14.488471984863281,-2.384152412414551
1710958273287882200,59.62088232421875,-2.008530378341675,-12.958168029785156,-5.180200099945068
1710958273345786600,59.67878662109375,-2.4471635818481445,-12.741058349609375,-7.6220622062683105
1710958273403691000,59.73669091796875,2.604166269302368,-13.960735321044922,0.2789344787597656
1710958273461595400,59.794595458984375,10.675941467285156,-9.28614616394043,16.18656349182129
1710958273519499800,59.85249975585938,15.271040916442871,-5.596571445465088,2.4323596954345703
1710958273577404000,59.91040380859375,6.644872665405273,-4.323427677154541,2.6141395568847656
1710958273635308300,59.96830834960937,4.151612281799316,1.1516387462615967,11.148335456848145
1710958273693212700,60.026212646484375,4.249533653259277,9.826452255249023,23.48868179321289
1710958273751117000,60.084116943359376,4.811731338500977,14.079035758972168,23.72915267944336
1710958273809021200,60.14202124023438,2.6101863384246826,11.895979881286621,7.655590057373047
1710958273866925600,60.19992553710937,5.050877571105957,9.240917205810547,-4.499592304229736
1710958273924830000,60.257829833984374,2.860917091369629,5.029641628265381,9.841564178466797
1710958273982734000,60.315734130859376,-0.21191781759262085,0.8865587711334229,33.049137115478516
1710958274040638500,60.37363842773438,8.347189903259277,-19.981300354003906,24.82573890686035
1710958274098542800,60.43154296875,-1.1625021696090698,-29.167856216430664,3.6610984802246094
1710958274156447000,60.489447021484374,-3.1734538078308105,-29.215490341186523,-18.424518585205078
1710958274214351400,60.547351318359375,1.3947945833206177,-24.718952178955078,-4.424988746643066
1710958274272255700,60.605255859375,-0.0020485222339630127,-13.098611831665039,3.4263744354248047
1710958274330160000,60.66316015625,2.480393171310425,-5.272217750549316,3.510629653930664
1710958274388064300,60.72106420898437,3.9492106437683105,-3.628185987472534,9.113011360168457
1710958274445968600,60.77896875,4.79470682144165,-2.0884900093078613,16.633045196533203
1710958274503872800,60.836872802734376,7.172463893890381,1.785447120666504,21.89354133605957
1710958274561777200,60.89477709960938,-1.4992396831512451,9.531989097595215,17.91435432434082
1710958274619681500,60.952681640625,-3.9214513301849365,10.36035442352295,3.78950834274292
1710958274677585700,61.010585693359374,3.0012710094451904,11.482678413391113,-5.371674537658691
1710958274735490000,61.068489990234376,7.594862937927246,5.439457893371582,-3.08463191986084
1710958274793394200,61.12639428710938,5.736835479736328,3.124347686767578,13.169224739074707
1710958274851298600,61.18429858398437,3.3794779777526855,-5.73349142074585,20.74243927001953
1710958274909203000,61.242202880859374,0.8950896263122559,-15.161556243896484,9.094857215881348
1710958274967107000,61.300107177734375,-3.0799546241760254,-17.110042572021484,-4.697879314422607
1710958275025011500,61.35801147460938,-3.5229949951171875,-16.191879272460938,-9.879032135009766
1710958275082915600,61.41591552734375,-2.2385759353637695,-11.48855972290039,-3.8945255279541016
1710958275140820000,61.47382006835937,-0.6047729253768921,-4.0531721115112305,-1.8243913650512695
1710958275198724000,61.53172412109375,2.0773298740386963,-2.870866537094116,-1.492933750152588
1710958275256628500,61.58962841796875,2.7877790927886963,-3.432156562805176,4.866367340087891
1710958275314532600,61.64753271484375,3.232680559158325,1.0568013191223145,15.302127838134766
1710958275372437000,61.70543701171875,-0.49572110176086426,5.105499267578125,18.520198822021484
1710958275430341000,61.76334106445312,-6.277584075927734,10.483070373535156,6.887109756469727
1710958275488245500,61.82124560546875,-1.6308648586273193,10.317919731140137,-5.234485626220703
1710958275546149600,61.879149658203126,1.2601057291030884,9.546184539794922,-6.394461631774902
1710958275604053800,61.9370537109375,0.08139598369598389,6.056817054748535,-2.6383004188537598
1710958275661958100,61.99495825195312,3.765263557434082,3.9968156814575195,9.439957618713379
1710958275719862300,62.0528623046875,2.6578378677368164,-2.8118486404418945,18.756072998046875
1710958275777766700,62.1107666015625,0.9852215051651001,-12.153199195861816,10.753097534179688
1710958275835670800,62.1686708984375,-1.6648669242858887,-14.414003372192383,-5.0803985595703125
1710958275893575200,62.2265751953125,1.9973021745681763,-10.4653959274292,-8.494902610778809
1710958275951479300,62.28447924804688,-0.8168511390686035,-6.018821716308594,-4.788331031799316
1710958276009383400,62.34238354492187,0.05280834436416626,-2.781620502471924,-7.104497909545898
1710958276067287800,62.400287841796874,1.3231315612792969,-2.9251840114593506,-0.10458183288574219
1710958276125192000,62.45819189453125,1.827012300491333,-2.7940354347229004,6.00052547454834
1710958276183096000,62.516095947265626,2.7008056640625,0.9286046028137207,11.901715278625488
1710958276241000400,62.57400048828125,-0.01936739683151245,4.582485198974609,13.709380149841309
1710958276298904600,62.63190454101562,-2.892681121826172,9.849159240722656,3.5504302978515625
1710958276356808700,62.68980859375,0.7644706964492798,14.24696159362793,-4.062671661376953
1710958276414713000,62.747713134765625,-2.684335708618164,11.10593032836914,-5.687538146972656
1710958276472617200,62.8056171875,3.3499910831451416,7.7749342918396,2.037106513977051
1710958276530521300,62.86352124023438,5.204018592834473,2.2161142826080322,15.15783405303955
1710958276588425700,62.92142578125,6.423861026763916,-8.70099925994873,25.9990234375
1710958276646329900,62.97932983398437,5.337975025177002,-9.677257537841797,9.404365539550781
1710958276704234000,63.03723388671875,2.3893890380859375,-10.016769409179688,-0.9564752578735352
1710958276762138000,63.09513818359375,2.7912473678588867,-15.156171798706055,-7.339139461517334
1710958276820042500,63.15304248046875,-0.8627037405967712,-14.552181243896484,-9.832422256469727
1710958276877946600,63.21094653320313,-3.686173915863037,-14.274239540100098,-7.7563910484313965
1710958276935850800,63.26885083007812,-3.275599718093872,-10.311573028564453,0.3176383972167969
1710958276993755000,63.3267548828125,3.0057532787323,2.789170503616333,13.048527717590332
1710958277051659000,63.384658935546874,0.6276249885559082,9.093152046203613,16.373573303222656
1710958277109563400,63.4425634765625,-4.001666069030762,9.976268768310547,8.952383995056152
1710958277167467500,63.50046752929688,-1.9407355785369873,14.385910987854004,-4.366701602935791
1710958277225371600,63.55837158203125,5.573566436767578,9.357059478759766,-6.988472938537598
1710958277283275800,63.61627587890625,12.406168937683105,4.819849967956543,0.37482547760009766
1710958277341180000,63.67417993164062,8.046937942504883,-0.003385782241821289,13.815298080444336
1710958277399084000,63.732083984375,6.54224157333374,-3.7318263053894043,19.46326446533203
1710958277456988400,63.789988525390626,0.06529784202575684,-10.580055236816406,4.8262248039245605
1710958277514892300,63.847892333984376,1.352897047996521,-14.84305191040039,-7.808582305908203
1710958277572796700,63.90579663085938,1.957299828529358,-15.149046897888184,-8.312661170959473
1710958277630700800,63.96370068359375,0.9396349191665649,-12.450068473815918,-5.939688682556152
1710958277688605000,64.02160498046875,-1.812211513519287,-7.732089519500732,-0.11536979675292969
1710958277746509000,64.07950903320312,-1.8591563701629639,-2.1450979709625244,7.382216453552246
1710958277804413200,64.1374130859375,0.19936084747314453,7.863903045654297,14.188626289367676
1710958277862317300,64.1953173828125,-3.7634451389312744,12.061905860900879,12.851675987243652
1710958277920221400,64.25322143554688,-4.028914451599121,10.765238761901855,3.409090042114258
1710958277978125600,64.31112548828125,-0.7467891573905945,4.844067096710205,-7.375069618225098
1710958278036029700,64.36902978515624,6.063459873199463,3.6065962314605713,-9.118408203125
1710958278093933800,64.42693383789063,1.0503467321395874,3.4867773056030273,-2.6060872077941895
1710958278151838000,64.484837890625,5.158257007598877,4.136048316955566,16.14557647705078
1710958278209742000,64.5427421875,2.8748958110809326,-1.873626947402954,18.726245880126953
1710958278267646200,64.60064624023437,2.5179240703582764,-10.019169807434082,4.927814483642578
1710958278325550300,64.65855029296876,0.9682711958885193,-12.191442489624023,-5.67329216003418
1710958278383454500,64.71645434570313,-1.3161036968231201,-13.523597717285156,-8.341642379760742
1710958278441358600,64.77435864257812,-1.2779244184494019,-13.36404800415039,-8.730828285217285
1710958278499262700,64.8322626953125,-0.17377418279647827,-12.583320617675781,-3.773007869720459
1710958278557166800,64.89016674804688,0.4283871054649353,-9.891796112060547,4.860577583312988
1710958278615071000,64.94807104492187,-1.1833291053771973,-3.8320469856262207,17.614242553710938
1710958278672974800,65.00597485351562,3.9175751209259033,4.25248384475708,22.766233444213867
1710958278730879000,65.06387890625,-3.8715555667877197,13.368448257446289,13.217002868652344
1710958278788783000,65.121783203125,8.498459815979004,16.311382293701172,-0.32183265686035156
1710958278846687200,65.17968725585938,2.9830076694488525,13.000982284545898,-4.045169353485107
1710958278904591400,65.23759130859375,5.332122802734375,5.705478668212891,-3.893683910369873
1710958278962495500,65.29549560546874,3.6157798767089844,0.6725654602050781,8.40746021270752
1710958279020399600,65.35339965820313,1.9121997356414795,-6.017971992492676,19.599090576171875
1710958279078303500,65.41130346679688,-1.514533519744873,-11.550986289978027,11.402532577514648
1710958279136207600,65.46920751953125,0.38108858466148376,-15.071623802185059,-4.298125267028809
1710958279194111700,65.52711181640625,-0.3338776230812073,-16.920513153076172,-7.782466411590576
1710958279252015900,65.58501586914062,-0.22968603670597076,-13.899975776672363,-5.545196533203125
1710958279309920000,65.642919921875,2.184000015258789,-11.607701301574707,1.761317253112793
1710958279367824000,65.70082397460938,4.622633457183838,-8.051911354064941,7.955976486206055
1710958279425728000,65.75872802734375,2.37705397605896,-4.912619113922119,15.763808250427246
1710958279483632000,65.81663208007812,2.4591856002807617,3.556605339050293,11.264506340026855
1710958279541536300,65.87453637695313,1.944344162940979,9.032925605773926,5.917166233062744
1710958279599440100,65.93244018554688,-0.05402233079075813,9.81672477722168,6.812586784362793
1710958279657344300,65.99034423828125,-1.1520590782165527,12.39088249206543,10.685371398925781
1710958279715248400,66.04824829101562,-0.7952398657798767,12.546625137329102,10.885726928710938
1710958279773152300,66.10615234375,1.2413125038146973,5.833756923675537,7.663148403167725
1710958279831056400,66.16405639648437,2.2344284057617188,0.3300437927246094,9.490579605102539
1710958279888960500,66.22196044921876,2.092621326446533,-7.090606689453125,16.475452423095703
1710958279946864400,66.27986450195313,2.5812697410583496,-11.279534339904785,11.080022811889648
1710958280004768500,66.3377685546875,-0.07730734348297119,-13.999170303344727,9.547622680664062
1710958280062675500,66.39567553710937,-0.2247917652130127,-16.030277252197266,1.2625927925109863
1710958280120579600,66.45357958984376,-1.086138367652893,-18.037132263183594,-7.2908430099487305
1710958280178483500,66.5114833984375,0.41924604773521423,-19.588565826416016,-10.105836868286133
1710958280236387600,66.5693876953125,1.0486531257629395,-16.888065338134766,-5.271389961242676
1710958280294291700,66.62729174804687,2.5639145374298096,-14.463753700256348,8.772385597229004
1710958280352195600,66.68519555664062,2.217275857925415,-12.722433090209961,13.775460243225098
1710958280410099700,66.743099609375,5.567073822021484,-5.259140968322754,18.389116287231445
1710958280468003600,66.80100366210938,4.84931755065918,0.9958715438842773,13.910401344299316
1710958280525907700,66.85890771484375,1.6202460527420044,5.069441318511963,13.198545455932617
1710958280583811600,66.9168115234375,-0.09825384616851807,8.614233016967773,8.453158378601074
1710958280641715700,66.9747158203125,0.4280017018318176,11.274201393127441,6.242674827575684
1710958280699619600,67.03261962890625,1.1189870834350586,9.795289993286133,7.450106620788574
1710958280757523700,67.09052368164062,1.5007634162902832,7.960144996643066,10.709903717041016
1710958280815427600,67.14842749023437,1.1518490314483643,3.9947683811187744,11.728921890258789
1710958280873331700,67.20633178710938,1.6432573795318604,-2.679506778717041,13.647644996643066
1710958280931235600,67.26423559570313,0.4821496605873108,-8.609566688537598,14.249521255493164
1710958280989139700,67.3221396484375,0.44795623421669006,-12.634445190429688,11.099874496459961
1710958281047043600,67.38004370117187,-0.17436420917510986,-15.485360145568848,6.165133476257324
1710958281104947700,67.43794775390624,-1.95405912399292,-19.608503341674805,-2.37117862701416
1710958281162851600,67.4958515625,-1.2147691249847412,-16.8240966796875,-4.757675647735596
1710958281220755700,67.55375561523438,-2.417037010192871,-14.718279838562012,-4.718103885650635
1710958281278659600,67.61165966796875,-1.8273744583129883,-15.123428344726562,0.11765480041503906
1710958281336563500,67.6695634765625,1.4691046476364136,-12.852550506591797,3.7700204849243164
1710958281394467600,67.72746752929687,8.739360809326172,-6.07053279876709,17.750465393066406
1710958281452371500,67.78537133789062,2.1001687049865723,0.23013782501220703,10.249582290649414
1710958281510275600,67.84327563476562,0.8824212551116943,3.9694762229919434,12.214444160461426
1710958281568179500,67.90117944335938,-2.5867674350738525,8.403853416442871,10.523250579833984
1710958281626083300,67.95908325195313,-2.3022842407226562,10.763751983642578,9.856257438659668
1710958281683987500,68.01698754882813,-0.7695464491844177,9.772054672241211,8.942584991455078
1710958281741891300,68.07489135742188,-1.6485915184020996,9.409180641174316,10.729442596435547
1710958281799795200,68.13279516601563,0.7382833957672119,5.104649543762207,10.624321937561035
1710958281857699000,68.19069897460938,2.164567708969116,-2.650571346282959,11.060072898864746
1710958281915603200,68.24860327148437,2.2833540439605713,-8.507842063903809,9.417366027832031
1710958281973507000,68.30650708007812,2.042902946472168,-10.805697441101074,8.229592323303223
1710958282031411000,68.36441088867187,1.8063945770263672,-11.617788314819336,4.355467796325684
1710958282089314800,68.42231469726562,1.5178557634353638,-12.677860260009766,0.22396469116210938
1710958282147219000,68.48021899414063,0.6189350485801697,-13.963655471801758,-4.928890228271484
1710958282205122800,68.53812280273438,-1.2479808330535889,-13.566305160522461,-8.071256637573242
1710958282263026700,68.59602661132813,0.16912412643432617,-13.5311279296875,-4.794008255004883
1710958282320930600,68.6539306640625,0.5335190892219543,-14.450592041015625,-0.7013401985168457
1710958282378834700,68.71183471679687,2.71938419342041,-13.77574634552002,6.255494117736816
1710958282436738600,68.76973852539062,4.9173583984375,-9.309572219848633,14.538203239440918
1710958282494642400,68.82764233398437,3.4381167888641357,-4.904231548309326,15.000694274902344
1710958282552546300,68.88554638671874,-0.4255295395851135,0.619391918182373,15.849052429199219
1710958282610450200,68.9434501953125,-2.788142681121826,5.6885271072387695,13.957012176513672
1710958282668354000,69.00135400390624,-1.4122753143310547,9.651155471801758,10.83673095703125
1710958282726258000,69.0592578125,1.1396393775939941,11.373738288879395,7.976879119873047
1710958282784161800,69.11716186523438,1.2309455871582031,10.105191230773926,7.232303619384766
1710958282842066000,69.17506591796875,1.0241209268569946,7.2104411125183105,8.107416152954102
1710958282899969800,69.2329697265625,3.2783989906311035,3.3073248863220215,9.528861045837402
1710958282957873700,69.29087377929687,3.153980016708374,-3.3311262130737305,10.860611915588379
1710958283015777500,69.34877758789062,1.5249886512756348,-8.432448387145996,10.50524616241455
1710958283073681400,69.40668139648437,1.0591495037078857,-10.49532699584961,7.374788284301758
1710958283131585300,69.46458520507812,1.5520696640014648,-10.976329803466797,3.5913572311401367
1710958283189489200,69.5224892578125,0.6620101928710938,-13.98299789428711,1.1547346115112305
1710958283247393000,69.58039306640624,-0.2667287290096283,-15.758618354797363,-4.717348575592041
1710958283305297000,69.638296875,0.21936100721359253,-15.630115509033203,-4.451808929443359
1710958283363200800,69.69620068359374,1.3855277299880981,-13.751041412353516,-4.152050018310547
1710958283421104600,69.75410473632813,2.0796525478363037,-13.606414794921875,2.092090606689453
1710958283479008500,69.81200854492188,2.1276276111602783,-10.9476957321167,6.176488876342773
1710958283536912400,69.86991235351563,2.641820192337036,-8.627673149108887,11.635210990905762
1710958283594816300,69.92781616210938,2.7523741722106934,-3.1346702575683594,14.837350845336914
1710958283652720000,69.98572021484375,0.9025622010231018,1.8974299430847168,16.278091430664062
1710958283710624000,70.0436240234375,-3.950655460357666,7.097441673278809,15.312352180480957
1710958283768528000,70.10152783203125,1.062718391418457,10.28366470336914,13.170075416564941
1710958283826431700,70.159431640625,6.798598289489746,11.12560749053955,10.106510162353516
1710958283884335600,70.21733569335937,7.836278438568115,9.267483711242676,7.624276161193848
1710958283942239500,70.27523950195312,5.305746555328369,6.423922538757324,8.636810302734375
1710958284000143000,70.33314306640625,3.3434791564941406,2.2376441955566406,11.000598907470703
1710958284058047000,70.391046875,0.9907306432723999,-4.956698894500732,15.370975494384766
1710958284115950800,70.44895092773437,0.02809757925570011,-12.781750679016113,16.32065773010254
1710958284173854700,70.50685473632812,0.4703221321105957,-16.671894073486328,11.24286937713623
1710958284231758600,70.56475854492187,-0.8602145910263062,-16.537567138671875,4.763275146484375
1710958284289662500,70.62266235351562,-3.719419479370117,-16.90114974975586,-4.434514045715332
1710958284347566000,70.68056616210937,-3.0285353660583496,-15.659284591674805,-7.187273979187012
1710958284405470000,70.73846997070312,-1.5405874252319336,-14.509934425354004,-6.576142311096191
1710958284463373800,70.79637377929687,0.2107507586479187,-13.291960716247559,-5.157747268676758
1710958284521277700,70.85427758789062,2.2216975688934326,-11.965490341186523,1.9840669631958008
1710958284579181600,70.912181640625,2.372091293334961,-11.037016868591309,5.797447204589844
1710958284637085200,70.97008520507812,3.6690480709075928,-9.148677825927734,11.058218002319336
1710958284694989000,71.02798901367187,0.9273796081542969,-5.041782855987549,14.433492660522461
1710958284752893000,71.08589282226562,-4.663046836853027,-0.33132171630859375,14.78608226776123
1710958284810796800,71.143796875,-6.387981414794922,5.032378673553467,12.989553451538086
1710958284868700700,71.20170068359376,-3.3496346473693848,7.9057464599609375,9.866064071655273
1710958284926604300,71.25960424804687,-0.6037070155143738,9.387185096740723,8.432888984680176
1710958284984508200,71.31750805664062,1.744529128074646,8.649944305419922,6.678966999053955
1710958285042412000,71.375412109375,2.7217140197753906,5.594721794128418,7.410597324371338
1710958285100315600,71.43331567382812,2.088416576385498,1.949742317199707,9.627885818481445
1710958285158219500,71.49121948242187,1.2594895362854004,-2.345273494720459,10.173291206359863
1710958285216123400,71.54912329101562,-0.6367663741111755,-7.079474925994873,9.556382179260254
1710958285274027000,71.60702709960937,-1.6523717641830444,-10.39356517791748,6.555912017822266
1710958285331931000,71.66493090820312,-0.6788349151611328,-11.18764877319336,3.153970718383789
1710958285389834800,71.72283471679688,-1.6811559200286865,-10.706088066101074,0.15964698791503906
1710958285447738400,71.78073828125,-4.152403831481934,-10.295411109924316,-2.4460806846618652
1710958285505642200,71.83864233398438,-5.263960838317871,-9.366047859191895,-4.9018096923828125
1710958285563546000,71.89654614257813,-5.438332557678223,-9.052160263061523,-4.527442932128906
1710958285621449700,71.95444970703124,-2.6424641609191895,-9.11019515991211,-3.9182095527648926
1710958285679353600,72.012353515625,-0.9156007766723633,-9.174538612365723,-3.3804993629455566
1710958285737257500,72.07025756835938,0.3659803867340088,-9.149561882019043,-0.726531982421875
1710958285795161000,72.1281611328125,1.6149649620056152,-8.747785568237305,4.2555341720581055
1710958285853065000,72.18606494140624,2.2055606842041016,-7.260892868041992,7.1098527908325195
1710958285910968600,72.24396850585937,3.630793571472168,-5.755484104156494,9.632740020751953
1710958285968872400,72.30187255859374,4.522914886474609,-2.5027780532836914,13.005064010620117
1710958286026776300,72.3597763671875,5.0705366134643555,3.7727808952331543,11.064967155456543
1710958286084680000,72.41767993164062,0.7644387483596802,7.1009602546691895,9.66846752166748
1710958286142583800,72.47558374023437,-1.8877172470092773,10.133146286010742,10.229460716247559
1710958286200487400,72.5334873046875,-2.189533233642578,11.820752143859863,9.973098754882812
1710958286258391300,72.59139135742187,1.459438443183899,9.476086616516113,9.388586044311523
1710958286316295200,72.64929516601562,3.105039119720459,5.067995071411133,10.010393142700195
1710958286374198800,72.70719873046875,3.165714740753174,0.27846336364746094,10.13387680053711
1710958286432102700,72.7651025390625,2.6651227474212646,-4.351199626922607,9.556249618530273
1710958286490006300,72.82300634765625,2.2067906856536865,-7.453400611877441,8.351655960083008
1710958286547910100,72.88091015625,2.9532406330108643,-9.332060813903809,7.001590728759766
1710958286605813800,72.93881372070312,6.756997108459473,-10.836708068847656,5.009808540344238
1710958286663717600,72.99671752929687,5.485926151275635,-11.827064514160156,1.8348617553710938
1710958286721621200,73.05462133789062,2.257492780685425,-13.9279146194458,-0.9677639007568359
1710958286779525000,73.11252514648437,1.545748233795166,-13.610541343688965,-5.829074859619141
1710958286837428700,73.1704287109375,0.38780397176742554,-13.816027641296387,-8.966649055480957
1710958286895332600,73.22833251953125,1.4153966903686523,-12.890639305114746,-7.726344108581543
1710958286953236200,73.286236328125,1.8306918144226074,-11.585256576538086,-2.3831162452697754
1710958287011140000,73.34414013671875,1.289001703262329,-10.529550552368164,2.3635120391845703
1710958287069043700,73.40204370117188,1.253709077835083,-10.933237075805664,5.950740814208984
1710958287126947600,73.45994750976563,2.3067209720611572,-10.024151802062988,10.156329154968262
1710958287184851200,73.51785131835938,4.816272735595703,-7.323994159698486,14.58683967590332
1710958287242754800,73.5757548828125,4.917450428009033,-1.457906723022461,17.4633731842041
1710958287300658700,73.63365869140625,1.9448306560516357,4.928706645965576,16.766820907592773
