time,seconds_elapsed,z,y,x
1710958213845094400,0.178094482421875,-3.0702710151672363,-1.4793957471847534,0.6170321106910706
1710958213878427400,0.211427490234375,-2.9016008377075195,1.1970316171646118,-0.6202390193939209
1710958213911760100,0.244760009765625,-1.1495381593704224,1.8479657173156738,-0.655820906162262
1710958213945093000,0.278093017578125,-0.7828007340431213,-0.2811424434185028,0.6779640913009644
1710958213978426000,0.311426025390625,-0.910544216632843,-2.372683525085449,1.675248622894287
1710958214011759000,0.344759033203125,-0.2101314514875412,-1.5778948068618774,1.3634874820709229
1710958214045092000,0.378092041015625,0.44332239031791687,-0.4677563011646271,1.7283159494400024
1710958214078425000,0.411425048828125,1.053176999092102,-0.6658998727798462,1.612713098526001
1710958214111758000,0.444758056640625,0.6594096422195435,-0.2752630412578583,0.24846212565898895
1710958214145091000,0.478091064453125,0.3946073353290558,-0.1217876747250557,-2.107499361038208
1710958214178424000,0.511424072265625,0.1343100368976593,-0.30580541491508484,-3.3191912174224854
1710958214211757000,0.544757080078125,0.1405712217092514,-0.9513182640075684,-1.8427734375
1710958214245090000,0.578090087890625,0.12888877093791962,0.44431501626968384,-0.09200886636972427
1710958214278422800,0.6114228515625,0.477300763130188,-0.09071081876754761,0.15736952424049377
1710958214311755800,0.644755859375,0.09483403712511063,-0.21952323615550995,0.1865374743938446
1710958214345088800,0.6780888671875,-0.19058434665203094,0.4910448491573334,0.03061871975660324
1710958214378421800,0.711421875,-0.11659546941518784,0.7424848675727844,0.3632250428199768
1710958214411754800,0.744754638671875,0.031000498682260513,0.7716528177261353,0.5013529062271118
1710958214445087700,0.778087646484375,0.12316207587718964,0.6479562520980835,0.36482852697372437
1710958214478420700,0.811420654296875,0.19631104171276093,0.20539739727973938,0.40552622079849243
1710958214511753700,0.844753662109375,0.14080029726028442,0.03649812191724777,0.3865899443626404
1710958214545086700,0.878086669921875,0.13988402485847473,-0.01763821393251419,0.11377029865980148
1710958214578419700,0.911419677734375,-0.003359660040587187,0.07314895838499069,-0.1319430023431778
1710958214611752700,0.944752685546875,-0.04367557913064957,0.14492350816726685,-0.16630317270755768
1710958214645085400,0.97808544921875,-0.03764346241950989,-0.011529741808772087,-0.08032641559839249
1710958214678418400,1.01141845703125,-0.13056860864162445,0.03779617324471474,-0.012751436792314053
1710958214711751400,1.04475146484375,-0.10323318839073181,0.14278554916381836,-0.0393996499478817
1710958214745084400,1.07808447265625,-0.08903098851442337,0.06436803191900253,-0.12316207587718964
1710958214778417400,1.11141748046875,-0.09269607067108154,-0.005803049076348543,-0.1749313771724701
1710958214811750400,1.14475048828125,0.013591351918876171,-0.08261708915233612,-0.06413896381855011
1710958214845083400,1.17808349609375,0.1214822456240654,-0.16340164840221405,0.027793550863862038
1710958214878416400,1.21141650390625,0.1316375881433487,-0.16645587980747223,-0.11445750296115875
1710958214911749400,1.244749267578125,0.08964183181524277,-0.23105297982692719,-0.09674293547868729
1710958214945082400,1.278082275390625,0.1014770045876503,-0.26403874158859253,0.08101361989974976
1710958214978415400,1.311415283203125,0.09239064902067184,-0.25922831892967224,0.16546325385570526
1710958215011748000,1.344748046875,0.02405211143195629,-0.09964445978403091,0.012827792204916477
1710958215045081000,1.3780810546875,-0.006642963737249374,0.0008399150101467967,-0.13568444550037384
1710958215078414000,1.4114140625,-0.0038177953101694584,-0.016645587980747223,-0.10002623498439789
1710958215111747000,1.4447470703125,-0.005803049076348543,-0.09246700257062912,-0.021914144977927208
1710958215145080000,1.478080078125,-0.01435491070151329,-0.05322006717324257,-0.04772244393825531
1710958215178413000,1.5114130859375,-0.015576604753732681,-0.008933641016483307,-0.05596888065338135
1710958215211746000,1.54474609375,-0.006948387715965509,-0.04802786558866501,-0.038788799196481705
1710958215245079000,1.5780791015625,-0.0295497365295887,-0.0752105712890625,0
1710958215278412000,1.611412109375,-0.003359660040587187,-0.06490252166986465,0.018630841746926308
1710958215311745000,1.6447451171875,0.0032833039294928312,-0.008933641016483307,0
1710958215345078000,1.678078125,0.012827792204916477,0.004275931045413017,-0.009239064529538155
1710958215378410800,1.71141064453125,0.030389651656150818,-0.11201411485671997,0.07116370648145676
1710958215411743700,1.74474365234375,0.023364907130599022,-0.1924932450056076,0.12316207587718964
1710958215445076700,1.77807666015625,0.021837789565324783,-0.2101314514875412,0.025884652510285378
1710958215478409700,1.81140966796875,0.01382041908800602,-0.13766969740390778,-0.02107422985136509
1710958215511742700,1.84474267578125,0.013896775431931019,-0.12400199472904205,0.017180079594254494
1710958215545075700,1.87807568359375,0.041766680777072906,-0.13179029524326324,0.01038440316915512
1710958215578408700,1.91140869140625,0.05169294774532318,-0.0880383625626564,-0.0489441379904747
1710958215611741700,1.94474169921875,0.025884652510285378,-0.0823880210518837,-0.02993151545524597
1710958215645074700,1.97807470703125,0.014813045971095562,-0.08513683825731277,0.013285927474498749
1710958215678407700,2.01140771484375,0.03374931216239929,-0.08887827396392822,0.019241688773036003
1710958215711740700,2.04474072265625,0.023059483617544174,-0.03145863488316536,-0.022524992004036903
1710958215745073400,2.078073486328125,-0.02680092304944992,-0.017409147694706917,-0.027259059250354767
1710958215778406400,2.111406494140625,-0.00022906772210262716,-0.025121092796325684,-0.013744063675403595
1710958215811739400,2.144739501953125,0.0293970238417387,-0.01763821393251419,-0.019088976085186005
1710958215845072400,2.178072265625,-0.01046075951308012,-0.0008399150101467967,-0.05047125369310379
1710958215878405400,2.2114052734375,0.0009162708884105086,-0.04421006888151169,-0.02733541466295719
1710958215911738400,2.24473828125,0.06184828653931618,-0.08987089991569519,0.04756972938776016
1710958215945071400,2.2780712890625,0.043981000781059265,-0.07398887723684311,0.0361163429915905
1710958215978404400,2.311404296875,0.011835165321826935,-0.027182703837752342,-0.020157959312200546
1710958216011737300,2.3447373046875,0.01626380905508995,0.005497625097632408,-0.01748550310730934
1710958216045070300,2.3780703125,0.02542651630938053,-0.024128466844558716,0.014660334214568138
1710958216078403300,2.4114033203125,-0.009468132629990578,-0.04184303805232048,0.023975754156708717
1710958216111736000,2.444736083984375,-0.0018325417768210173,-0.03764346241950989,0.030695075169205666
1710958216145069000,2.478069091796875,-0.007711946498602629,0.0007635590736754239,0.027946261689066887
1710958216178402000,2.511402099609375,-0.015423892997205257,0.04665346071124077,-0.02832804247736931
1710958216211735000,2.544735107421875,-0.010842538438737392,0.03733803704380989,-0.033978380262851715
1710958216245068000,2.578068115234375,-0.01954711228609085,0.023746687918901443,-0.029091600328683853
1710958216278401000,2.611401123046875,-0.020616095513105392,0.05482354015111923,0.0331384651362896
1710958216311734000,2.644734130859375,-0.04459185153245926,0.20287764072418213,0.019470756873488426
1710958216345067000,2.67806689453125,-0.043981000781059265,0.23884128034114838,-0.07994463294744492
1710958216378400000,2.71139990234375,-0.01817270554602146,0.10071343928575516,-0.07620319724082947
1710958216411733000,2.74473291015625,0.005879404954612255,-0.07116370648145676,0.03955236077308655
1710958216445066000,2.77806591796875,-0.047111593186855316,-0.13125580549240112,0.11300674080848694
1710958216478398700,2.811398681640625,-0.0038941511884331703,0.047798797488212585,0.04665346071124077
1710958216511731700,2.844731689453125,0.06513158977031708,0.08788564801216125,-0.05337277799844742
1710958216545064700,2.878064697265625,0.002672456670552492,-0.09468132257461548,0.007941014133393764
1710958216578397700,2.911397705078125,-0.15630054473876953,0.1805817186832428,0.14171656966209412
1710958216611730700,2.944730712890625,-0.18439951539039612,0.5942016839981079,-0.054518118500709534
1710958216645063700,2.978063720703125,-0.09979717433452606,0.5115082263946533,-0.20661908388137817
1710958216678396700,3.011396728515625,-0.0745997205376625,-0.3996468186378479,1.122202754020691
1710958216711729700,3.044729736328125,-0.8731297850608826,-2.001899242401123,1.4326659440994263
1710958216745062700,3.078062744140625,-0.2212030589580536,-0.9926267862319946,0.20409934222698212
1710958216778395600,3.111395751953125,0.06910209357738495,-1.2717839479446411,0.2065427303314209
1710958216811728600,3.144728759765625,0.4698179066181183,-1.1865707635879517,0.8456416726112366
1710958216845061400,3.178061279296875,1.2373474836349487,-2.225011110305786,1.5453672409057617
1710958216878394400,3.211394287109375,1.9922783374786377,-4.182318687438965,2.345271587371826
1710958216911727400,3.244727294921875,2.7358322143554688,-4.3625946044921875,1.6747905015945435
1710958216945060400,3.278060302734375,3.7383852005004883,-4.2394328117370605,-0.8200624585151672
1710958216978393300,3.311393310546875,4.562952518463135,-4.287537097930908,-1.892099380493164
1710958217011726300,3.344726318359375,5.798849582672119,-4.891359329223633,-1.4569470882415771
1710958217045059300,3.378059326171875,6.575770854949951,-3.572998285293579,-1.3178266286849976
1710958217078392300,3.411392333984375,7.029325008392334,-2.312896728515625,-1.7496956586837769
1710958217111725300,3.444725341796875,7.436531066894531,-0.9529981017112732,-2.2844924926757812
1710958217145058300,3.478058349609375,6.694885730743408,-0.3676536977291107,-1.3786059617996216
1710958217178391300,3.511391357421875,5.362093448638916,-0.5540384650230408,0.14522893726825714
1710958217211724000,3.54472412109375,3.9008705615997314,-0.6804074645042419,0.0009926267666742206
1710958217245057000,3.57805712890625,3.3318662643432617,0.9144383668899536,-1.915006160736084
1710958217278390000,3.61139013671875,2.77866792678833,1.1766445636749268,-2.1895055770874023
1710958217311723000,3.644722900390625,1.2466628551483154,-0.16172181069850922,-1.6530290842056274
1710958217345056000,3.678055908203125,-0.9929322004318237,-0.16874656081199646,-1.3358465433120728
1710958217378389000,3.711388916015625,-2.7250659465789795,0.5560237169265747,-1.3026317358016968
1710958217411722000,3.744721923828125,-3.710515260696411,0.4813476502895355,-0.5250995755195618
1710958217445055000,3.778054931640625,-5.039871692657471,1.4298406839370728,0.6701757907867432
1710958217478388000,3.811387939453125,-6.459098815917969,5.631629943847656,0.43477052450180054
1710958217511721000,3.844720947265625,-6.849659442901611,8.001870155334473,1.6453170776367188
1710958217545054000,3.878053955078125,-6.0704474449157715,6.075716018676758,3.8497884273529053
1710958217578386700,3.91138671875,-5.619718551635742,5.2549662590026855,4.505151271820068
1710958217611719700,3.9447197265625,-4.604719161987305,6.040897846221924,4.1552886962890625
1710958217645052700,3.978052734375,-3.177398443222046,3.5637593269348145,4.6283135414123535
1710958217678385700,4.0113857421875,-1.8174233436584473,1.4283899068832397,5.268404960632324
1710958217711718700,4.04471875,-0.4348468780517578,-0.4188121557235718,4.123906135559082
1710958217745051600,4.0780517578125,-0.7055285573005676,-1.5545299053192139,3.3164424896240234
1710958217778384600,4.111384521484375,-0.826018214225769,-2.202791690826416,3.2407736778259277
1710958217811717600,4.144717529296875,0.8125795722007751,-2.168278694152832,1.3036243915557861
1710958217845050600,4.178050537109375,2.9455819129943848,-1.7054855823516846,-0.8441145420074463
1710958217878383600,4.211383544921875,4.4723944664001465,-2.0881049633026123,-1.0088906288146973
1710958217911716600,4.244716552734375,5.802743434906006,-2.5030994415283203,-0.5638883709907532
1710958217945049300,4.27804931640625,6.791934490203857,-2.466219425201416,-1.3690614700317383
1710958217978382300,4.31138232421875,7.372697353363037,-2.891063690185547,-2.2760169506073
1710958218011715300,4.34471533203125,7.746383190155029,-1.057529330253601,-3.318274974822998
1710958218045048300,4.37804833984375,7.28351354598999,0.6923190355300903,-5.186169624328613
1710958218078381300,4.41138134765625,7.048337459564209,0.03833066672086716,-3.9848620891571045
1710958218111714300,4.44471435546875,7.057652950286865,-1.1556466817855835,0.36360684037208557
1710958218145047300,4.47804736328125,5.4963274002075195,-1.981817603111267,1.9233289957046509
1710958218178380300,4.51138037109375,4.119019508361816,1.3996037244796753,-0.645818293094635
1710958218211713300,4.54471337890625,2.352525472640991,3.6801257133483887,-1.8171179294586182
1710958218245046300,4.57804638671875,1.0762364864349365,1.392960786819458,0.21173493564128876
1710958218278379300,4.611379150390625,0.3988068997859955,-1.110825777053833,1.7593164443969727
1710958218311712000,4.6447119140625,-0.4437805414199829,-0.24288813769817352,0.7283589839935303
1710958218345045000,4.678044921875,-1.6386741399765015,0.20791713893413544,-0.1730988472700119
1710958218378378000,4.7113779296875,-2.7439258098602295,-0.30007871985435486,-0.31954947113990784
1710958218411711000,4.7447109375,-3.4288384914398193,-0.553809404373169,-0.12255123257637024
1710958218445044000,4.7780439453125,-3.893998622894287,-0.5219689607620239,0.8478559851646423
1710958218478377000,4.811376953125,-3.932558298110962,-0.972697913646698,2.589534282684326
1710958218511710000,4.8447099609375,-4.181784152984619,-1.8100167512893677,4.187587261199951
1710958218545043000,4.87804296875,-5.538322925567627,-1.8701852560043335,3.1864848136901855
1710958218578376000,4.9113759765625,-7.001760482788086,-1.4659570455551147,1.0740221738815308
1710958218611709000,4.944708984375,-7.360251426696777,-0.8971819281578064,0.06986565887928009
1710958218645042000,4.9780419921875,-6.695725917816162,-0.8286142945289612,0.6534538269042969
1710958218678374700,5.011374755859375,-5.8605451583862305,-1.0295066833496094,1.9463884830474854
1710958218711707600,5.044707763671875,-4.825616836547852,-0.8128849864006042,2.13956880569458
1710958218745040600,5.07804052734375,-3.3941729068756104,-0.8428928852081299,1.8099404573440552
1710958218778373600,5.11137353515625,-2.3884127140045166,0.03886515647172928,-0.12186402827501297
1710958218811706600,5.14470654296875,-1.0666157007217407,-0.039323292672634125,-0.9527690410614014
1710958218845039600,5.17803955078125,0.41972842812538147,-0.7925743460655212,-0.10880716890096664
1710958218878372600,5.21137255859375,1.6974681615829468,-0.5388436317443848,0.5163186192512512
1710958218911705600,5.24470556640625,2.9755897521972656,0.056808795779943466,-0.42362257838249207
1710958218945038600,5.27803857421875,4.074885845184326,0.3403182923793793,-1.3607386350631714
1710958218978371600,5.31137158203125,4.855013847351074,0.47264307737350464,-1.3182083368301392
1710958219011704600,5.34470458984375,5.446543216705322,0.5631248354911804,-1.5083346366882324
1710958219045037300,5.378037353515625,5.602461814880371,0.5202891230583191,-1.9225653409957886
1710958219078370300,5.411370361328125,5.729671001434326,0.22372281551361084,-2.2463908195495605
1710958219111703300,5.444703369140625,6.811481475830078,-0.5063923597335815,-1.4705383777618408
1710958219145036300,5.478036376953125,7.167834281921387,-1.3990693092346191,0.24212458729743958
1710958219178369300,5.511369384765625,6.362585067749023,-0.6688013672828674,-0.584199070930481
1710958219211702300,5.544702392578125,5.213199615478516,1.4420576095581055,-3.244591474533081
1710958219245035300,5.57803515625,3.377908945083618,1.6947193145751953,-3.5247414112091064
1710958219278368300,5.6113681640625,1.8505617380142212,0.9110023379325867,-1.2737692594528198
1710958219311701200,5.644701171875,1.217953085899353,0.30656898021698,-0.32764318585395813
1710958219345034200,5.6780341796875,0.6226824522018433,-0.24365170300006866,0.042759306728839874
1710958219378367200,5.7113671875,-0.23662695288658142,-0.4548521339893341,0.333064466714859
1710958219411700000,5.744699951171875,-1.180156946182251,-0.2880144715309143,0.34604495763778687
1710958219445033000,5.778032958984375,-1.9941108226776123,-0.11796987801790237,0.13423368334770203
1710958219478366000,5.811365966796875,-2.8780832290649414,0.5498389005661011,-0.048486001789569855
1710958219511699000,5.844698974609375,-3.730520486831665,0.6807129383087158,0.42637139558792114
1710958219545032000,5.878031982421875,-4.321286201477051,0.63199782371521,1.4550381898880005
1710958219578365000,5.911364990234375,-4.819966793060303,0.7049940824508667,1.7219020128250122
1710958219611698000,5.944697998046875,-5.664004802703857,0.8206732869148254,1.4862676858901978
1710958219645031000,5.978031005859375,-6.521023750305176,0.6843779683113098,1.6237083673477173
1710958219678364000,6.011364013671875,-6.690075397491455,0.8507575392723083,1.8176523447036743
1710958219711697000,6.04469677734375,-6.537210941314697,1.0705097913742065,1.9606670141220093
1710958219745030000,6.07802978515625,-6.110305309295654,0.43232715129852295,2.076880693435669
1710958219778362600,6.111362548828125,-5.733717918395996,0.39147675037384033,2.3216776847839355
1710958219811695600,6.144695556640625,-6.824385643005371,1.343634843826294,2.579073429107666
1710958219845028600,6.178028564453125,-4.308076858520508,0.3614688515663147,3.7008180618286133
1710958219878361600,6.211361572265625,-1.0883007049560547,-1.1987113952636719,3.218172311782837
1710958219911694600,6.244694580078125,-0.7539382576942444,-0.6038225293159485,1.2373474836349487
1710958219945027600,6.278027587890625,-0.5824428796768188,0.8037986159324646,-1.0642486810684204
1710958219978360600,6.311360595703125,1.1519051790237427,0.5463265180587769,-1.729614019393921
1710958220011693600,6.344693603515625,2.9772696495056152,0.03092414326965809,-1.0071344375610352
1710958220045026600,6.378026611328125,4.104359149932861,0.5890094637870789,-1.0179005861282349
1710958220078361900,6.41136181640625,4.602275848388672,1.2698750495910645,-1.5484977960586548
1710958220111692500,6.444692626953125,5.0610222816467285,0.9881218075752258,-1.6063755750656128
1710958220145025500,6.478025634765625,5.690195083618164,0.5606050491333008,-1.6029396057128906
1710958220178358500,6.511358642578125,6.3527350425720215,0.6161158084869385,-2.0115199089050293
1710958220211691500,6.54469140625,6.688548564910889,0.3801760673522949,-1.9132499694824219
1710958220245024500,6.5780244140625,6.745815277099609,0.2247154414653778,-1.919053077697754
1710958220278357500,6.611357421875,6.495062351226807,0.19806721806526184,-1.9579945802688599
1710958220311690500,6.6446904296875,5.465785026550293,0.3542150557041168,-2.61694598197937
1710958220345023200,6.678023193359375,4.041441917419434,0.906191885471344,-3.898503541946411
1710958220378356200,6.711356201171875,3.3149917125701904,0.6042042970657349,-3.9031612873077393
1710958220411689200,6.744689208984375,2.3444318771362305,-0.39865419268608093,-2.207602024078369
1710958220445022200,6.778022216796875,1.4035743474960327,-0.6830036044120789,-0.2298312783241272
1710958220478355200,6.811355224609375,1.0466104745864868,-0.16454698145389557,0.6375718116760254
1710958220511688200,6.844688232421875,-0.5196019411087036,-0.3300865888595581,0.5150206089019775
1710958220545021200,6.878021240234375,-2.3639025688171387,-0.03955236077308655,0.3280249834060669
1710958220578354200,6.911354248046875,-3.5066449642181396,0.35765108466148376,0.6911736726760864
1710958220611687200,6.944687255859375,-4.05075740814209,0.7293516397476196,0.9310075640678406
1710958220645020200,6.978020263671875,-5.220835208892822,0.7160657048225403,1.5249037742614746
1710958220678353200,7.011353271484375,-6.147872447967529,1.693574070930481,1.4539692401885986
1710958220711686000,7.044685791015625,-7.291378498077393,1.434880256652832,1.7343480587005615
1710958220745019000,7.078018798828125,-8.708162307739258,1.8652220964431763,3.1773219108581543
1710958220778351900,7.111351806640625,-8.718470573425293,1.9490609169006348,4.645417213439941
1710958220811684900,7.144684814453125,-7.860687732696533,0.6006919145584106,5.47815465927124
1710958220845017900,7.178017822265625,-6.383583068847656,-0.14965757727622986,4.530043125152588
1710958220878350800,7.211350830078125,-4.512404918670654,-0.09704835712909698,2.0775678157806396
1710958220911683800,7.244683837890625,-3.2875800132751465,1.9288265705108643,0.47859883308410645
1710958220945016800,7.278016845703125,0.045202698558568954,-1.1740484237670898,4.219274520874023
1710958220978349800,7.311349853515625,3.3193440437316895,-1.674943208694458,2.8764796257019043
1710958221011682800,7.344682861328125,3.4729721546173096,1.0679137706756592,-1.8783552646636963
1710958221045015800,7.378015869140625,3.8641433715820312,1.5958384275436401,-2.267465114593506
1710958221078348500,7.4113486328125,5.642167091369629,0.846023440361023,-0.9893434643745422
1710958221111681500,7.444681640625,6.7217631340026855,0.7798228859901428,-1.7188478708267212
1710958221145014500,7.4780146484375,7.0511627197265625,1.7419073581695557,-2.6986467838287354
1710958221178347500,7.511347412109375,8.059900283813477,2.454308032989502,-4.000667572021484
1710958221211680500,7.544680419921875,8.621498107910156,2.2141685485839844,-5.430202960968018
1710958221245013500,7.578013427734375,8.388460159301758,1.0054545402526855,-5.584289073944092
1710958221278346500,7.611346435546875,8.133126258850098,-0.6635328531265259,-3.424715042114258
1710958221311679500,7.644679443359375,6.096102714538574,-1.2628504037857056,-2.313584089279175
1710958221345012500,7.678012451171875,2.6045000553131104,0.460273414850235,-3.305065393447876
1710958221378345500,7.711345458984375,1.1630531549453735,2.3052611351013184,-3.748769521713257
1710958221411678500,7.744678466796875,1.7401511669158936,0.03626905754208565,-1.6185925006866455
1710958221445011200,7.77801123046875,0.9748358726501465,-0.7101863026618958,-0.5464792251586914
1710958221478344200,7.81134423828125,-0.8648070096969604,0.006184828467667103,-0.5101338028907776
1710958221511677200,7.84467724609375,-2.509436845779419,1.1228899955749512,-0.23563432693481445
1710958221545010200,7.87801025390625,-3.801149845123291,1.1341906785964966,1.1568683385849
1710958221578343200,7.91134326171875,-4.427344799041748,0.9332982301712036,2.101238250732422
1710958221611676200,7.94467626953125,-5.181588172912598,1.0938746929168701,2.4378914833068848
1710958221645009200,7.978009033203125,-6.428251266479492,1.1599225997924805,2.938633441925049
1710958221678342100,8.011342041015626,-7.457299709320068,0.9853729605674744,3.702497959136963
1710958221711675100,8.044675048828125,-8.711522102355957,1.7466413974761963,4.0864152908325195
1710958221745008000,8.078008056640625,-9.980403900146484,3.2282514572143555,3.7831296920776367
1710958221778341000,8.111341064453125,-9.766149520874023,3.6948623657226562,4.9162516593933105
1710958221811673900,8.144673828125,-8.323404312133789,2.331756591796875,7.441112041473389
1710958221845006800,8.1780068359375,-6.424280643463135,0.20616094768047333,6.524077892303467
1710958221878339800,8.21133984375,-4.399398326873779,0.47027602791786194,2.821197986602783
1710958221911672800,8.2446728515625,-2.0619912147521973,1.2846118211746216,1.3228660821914673
1710958221945005800,8.278005859375,2.5118038654327393,-0.26159533858299255,0.39414918422698975
1710958221978338800,8.3113388671875,5.815571308135986,-0.3685699701309204,-1.2267340421676636
1710958222011671800,8.344671875,6.808656215667725,-0.24189551174640656,-1.5804909467697144
1710958222045004800,8.3780048828125,7.006112575531006,-0.1608818918466568,-1.3462309837341309
1710958222078337800,8.411337890625,8.071353912353516,0.634899377822876,-2.5511271953582764
1710958222111670800,8.4446708984375,9.536852836608887,2.1856114864349365,-5.102636337280273
1710958222145003800,8.478003662109375,9.635809898376465,3.0357582569122314,-7.446457386016846
1710958222178336500,8.51133642578125,9.0669584274292,-0.362995982170105,-5.731274604797363
1710958222211669500,8.54466943359375,7.893902778625488,-4.09282922744751,-0.05841226875782013
1710958222245002500,8.57800244140625,5.307804584503174,-3.1029512882232666,0.21318569779396057
1710958222278335500,8.61133544921875,3.8481850624084473,0.6227588057518005,-2.1622464656829834
1710958222311668500,8.64466845703125,2.7111692428588867,-0.3775799572467804,-0.5486171841621399
1710958222345001500,8.67800146484375,0.8503757119178772,-1.5090981721878052,1.6850221157073975
1710958222378334500,8.71133447265625,-0.7544727325439453,0.0814717561006546,-0.4960843324661255
1710958222411667500,8.74466748046875,-2.342217445373535,0.9314656853675842,-3.2100024223327637
1710958222445000400,8.77800048828125,-3.641718626022339,0.04527905210852623,-3.7880165576934814
1710958222478333400,8.81133349609375,-5.008260250091553,1.4687821865081787,-3.5692567825317383
1710958222511666400,8.84466650390625,-5.645679473876953,3.5366528034210205,-1.0229400396347046
1710958222544999200,8.877999267578126,-6.223311901092529,2.822496175765991,2.3700110912323
1710958222578332200,8.911332275390626,-6.824996471405029,2.597322463989258,4.856541156768799
1710958222611665200,8.9446650390625,-8.22513484954834,2.904884099960327,5.717912197113037
1710958222644998100,8.977998046875,-8.93631362915039,2.7388100624084473,6.556452751159668
1710958222678331100,9.0113310546875,-10.0558443069458,2.1457536220550537,6.757650375366211
1710958222711664000,9.0446640625,-9.757369041442871,1.9237107038497925,4.087942600250244
1710958222744997000,9.0779970703125,-8.049898147583008,1.4512966871261597,1.7303775548934937
1710958222778330000,9.111330078125,-5.699663162231445,0.42392799258232117,1.028285026550293
1710958222811663000,9.1446630859375,-2.6605453491210938,0.04046862944960594,0.7785248160362244
1710958222844996000,9.17799609375,-1.4019708633422852,0.17989452183246613,0.4856235682964325
1710958222878329000,9.2113291015625,1.6165308952331543,-0.4238516390323639,0.5608341693878174
1710958222911661800,9.244661865234375,7.000004291534424,-0.08498412370681763,0.17355698347091675
1710958222944994800,9.277994873046875,9.566402435302734,-0.0008399150101467967,-0.7756233215332031
1710958222978327800,9.311327880859375,9.607024192810059,-0.726908266544342,-1.5375025272369385
1710958223011660800,9.344660888671875,9.306944847106934,-1.945701241493225,-2.0492398738861084
1710958223044993800,9.377993896484375,9.460573196411133,-1.7511464357376099,-2.058326244354248
1710958223078326800,9.411326904296875,10.909808158874512,-0.5761816501617432,-1.363792896270752
1710958223111659800,9.44465966796875,10.434798240661621,-0.6367319226264954,-1.4115153551101685
1710958223144992800,9.47799267578125,8.092275619506836,-1.8152090311050415,-1.5310122966766357
1710958223178325800,9.51132568359375,6.925939083099365,-1.3857070207595825,-2.34305739402771
1710958223211658800,9.54465869140625,4.261346817016602,0.33230090141296387,-2.5783863067626953
1710958223244991700,9.57799169921875,2.2297451496124268,1.6667730808258057,-2.064587354660034
1710958223278324500,9.611324462890625,2.00449538230896,0.6405497193336487,-1.452060341835022
1710958223311657500,9.644657470703125,1.107618808746338,-0.9894198179244995,-1.7868045568466187
1710958223344990500,9.677990478515625,-0.5443412661552429,-1.721062183380127,-1.0131665468215942
1710958223378323500,9.711323486328125,-1.5930896997451782,0.7453863620758057,-1.577818512916565
1710958223411656400,9.744656494140624,-2.1746163368225098,3.6430931091308594,-2.229210615158081
1710958223444989400,9.777989501953124,-2.6513824462890625,5.33628511428833,-2.3734469413757324
1710958223478322400,9.811322509765626,-3.126774311065674,5.587801456451416,-1.8223100900650024
1710958223511655400,9.844655517578126,-3.7302916049957275,6.235375881195068,-0.7303442358970642
1710958223544988400,9.877988525390625,-4.835772514343262,7.058263778686523,0.3617742955684662
1710958223578321400,9.9113212890625,-5.398820877075195,8.06440544128418,2.3801662921905518
1710958223611654400,9.944654296875,-6.507279396057129,8.95456314086914,3.5977375507354736
1710958223644987100,9.977987060546875,-6.587071418762207,7.497386455535889,4.267302513122559
1710958223678320000,10.011320068359375,-6.045249938964844,4.787286281585693,6.434130668640137
1710958223711653000,10.044653076171874,-5.81671667098999,3.1348681449890137,7.18073844909668
1710958223744986000,10.077986083984374,-4.379011154174805,1.076389193534851,4.786446571350098
1710958223778319000,10.111319091796876,-1.9257723093032837,0.794177770614624,1.3850197792053223
1710958223811652000,10.144652099609376,0.19088977575302124,0.9995751976966858,0.3080197274684906
1710958223844985000,10.177985107421875,2.490882396697998,-0.29503923654556274,0.9742250442504883
1710958223878318000,10.211318115234375,5.739139080047607,-1.7111358642578125,0.16034740209579468
1710958223911651000,10.244651123046875,7.88924503326416,-1.0351570844650269,-2.1327731609344482
1710958223944984000,10.277984130859375,7.930095672607422,-2.124603033065796,-2.437356948852539
1710958223978317000,10.311317138671875,8.252317428588867,-3.3023929595947266,-1.9026365280151367
1710958224011649800,10.34464990234375,9.180194854736328,-2.075429916381836,-2.5898396968841553
1710958224044982800,10.377982666015624,8.812005996704102,-1.3094274997711182,-3.3143808841705322
1710958224078315800,10.411315673828126,7.099419593811035,-1.301639199256897,-1.7825286388397217
1710958224111648800,10.444648681640626,5.189453125,-1.3661599159240723,0.9003124833106995
1710958224144981800,10.477981689453125,4.666644096374512,0.11842801421880722,0.725457489490509
1710958224178314800,10.511314697265625,3.8936166763305664,1.8696507215499878,-1.8794243335723877
1710958224211647700,10.544647705078125,3.1780855655670166,0.8568660020828247,-4.192855358123779
1710958224244980700,10.577980712890625,2.2353954315185547,-0.7748597264289856,-3.4115819931030273
1710958224278313700,10.611313720703125,1.2242143154144287,-0.13537901639938354,-0.6181010603904724
1710958224311646700,10.644646728515625,-0.5376983284950256,0.6296308040618896,-1.7208330631256104
1710958224344979700,10.677979736328124,-2.684979200363159,1.1591590642929077,-1.7802380323410034
1710958224378312400,10.7113125,-3.5620031356811523,1.398687481880188,-0.40758782625198364
1710958224411645400,10.7446455078125,-4.003645420074463,3.2064900398254395,-0.05635065957903862
1710958224444978400,10.777978515625,-4.677944660186768,4.380309104919434,1.28018319606781
1710958224478311400,10.8113115234375,-5.111187934875488,4.48193883895874,3.173656940460205
1710958224511644400,10.84464453125,-6.263246059417725,4.4285664558410645,5.034450531005859
1710958224544977400,10.877977294921875,-7.286262512207031,3.9584429264068604,5.426919937133789
1710958224578310400,10.911310302734375,-7.651625633239746,3.3550021648406982,4.486443996429443
1710958224611643400,10.944643310546875,-7.420114517211914,2.637791156768799,4.994974613189697
1710958224644976400,10.977976318359374,-6.858745574951172,1.5643798112869263,5.067283630371094
1710958224678309400,11.011309326171874,-6.179941654205322,0.3190913498401642,4.1831583976745605
1710958224711642400,11.044642333984376,-4.918160438537598,0.16347800195217133,2.5072226524353027
1710958224744975000,11.07797509765625,-3.706010341644287,-0.09743013978004456,1.652876377105713
1710958224778308000,11.11130810546875,-0.02038702741265297,-1.167176365852356,0.3477247953414917
1710958224811641000,11.14464111328125,4.747886657714844,-0.3223746418952942,-0.99163419008255
1710958224844974000,11.17797412109375,7.836636066436768,-0.7372926473617554,-1.1112838983535767
1710958224878307000,11.21130712890625,8.792153358459473,-0.9106205701828003,-0.8548043966293335
1710958224911640000,11.24464013671875,9.381926536560059,-0.3201603293418884,-1.1867234706878662
1710958224944973000,11.27797314453125,8.678536415100098,0.8110524415969849,-1.9595216512680054
1710958224978306000,11.31130615234375,10.236120223999023,0.7112552523612976,-1.6572285890579224
1710958225011639000,11.34463916015625,10.551928520202637,-0.08276980370283127,0.9240592122077942
1710958225044972000,11.377971923828126,7.181272983551025,0.8214368224143982,0.6153522729873657
1710958225078305000,11.411304931640625,4.808971405029297,2.6535205841064453,-3.596057891845703
1710958225111637800,11.4446376953125,3.7715237140655518,1.3207281827926636,-4.140017509460449
1710958225144970800,11.477970703125,3.667832374572754,-0.9410865306854248,-1.640277624130249
1710958225178303700,11.5113037109375,1.8843110799789429,-0.4514924883842468,-1.573542594909668
1710958225211636700,11.54463671875,-2.1297190189361572,1.0552386045455933,0.28763270378112793
1710958225244969700,11.5779697265625,-3.424333333969116,0.3552076816558838,1.7902406454086304
1710958225278302700,11.611302734375,-4.904721736907959,0.23800136148929596,0.24517881870269775
1710958225311635700,11.6446357421875,-6.872642517089844,0.6787276864051819,-1.3201172351837158
1710958225344968700,11.67796875,-7.62612247467041,1.7876445055007935,-0.18898087739944458
1710958225378301700,11.7113017578125,-8.548425674438477,2.1691949367523193,2.3613827228546143
1710958225411634700,11.744634765625,-9.35634708404541,2.223102331161499,3.6508049964904785
1710958225444967700,11.7779677734375,-9.320765495300293,2.489737033843994,3.8892645835876465
1710958225478300400,11.811300537109375,-8.983348846435547,2.500274181365967,3.954167127609253
1710958225511633400,11.84463330078125,-7.7560038566589355,1.8414753675460815,4.405888557434082
1710958225544966400,11.87796630859375,-5.480979919433594,0.15446799993515015,4.189801216125488
1710958225578299400,11.91129931640625,-3.550091505050659,0.32344362139701843,1.7910804748535156
1710958225611632400,11.94463232421875,-0.8309049606323242,0.41117656230926514,-0.22906772792339325
1710958225644965400,11.97796533203125,3.067445755004883,-0.7911999225616455,-0.3658975064754486
1710958225678298400,12.01129833984375,6.786360263824463,-1.3805911540985107,-1.0006442070007324
1710958225711631400,12.04463134765625,7.397436618804932,-0.6685723066329956,-1.4260993003845215
1710958225744964400,12.07796435546875,8.612870216369629,-0.42186638712882996,-1.78214693069458
1710958225778297300,12.11129736328125,9.63199234008789,-0.41972842812538147,-1.462062954902649
1710958225811630300,12.14463037109375,9.252961158752441,0.3751365840435028,-1.4478607177734375
1710958225844963000,12.177963134765625,9.319314956665039,1.2387982606887817,-1.6829605102539062
1710958225878296000,12.211296142578124,9.124530792236328,0.8296069502830505,-0.681323766708374
1710958225911629000,12.244629150390624,7.776314735412598,0.2357870489358902,0.3154262602329254
1710958225944962000,12.277962158203126,5.845273971557617,1.417700171470642,-1.3027844429016113
1710958225978295000,12.311294921875,3.495955228805542,2.0949771404266357,-2.6028964519500732
1710958226011628000,12.3446279296875,2.5264642238616943,1.833916187286377,-2.47072434425354
1710958226044961000,12.3779609375,2.4462904930114746,0.04947862774133682,-1.2699514627456665
1710958226078294000,12.4112939453125,2.1274282932281494,-1.5829342603683472,0.7636354565620422
1710958226111627000,12.444626953125,1.1512943506240845,-1.8591135740280151,1.4381635189056396
1710958226144960000,12.4779599609375,-1.9340187311172485,-1.9752509593963623,1.1607625484466553
1710958226178293000,12.51129296875,-4.593189716339111,-0.8909971117973328,0.017180079594254494
1710958226211625700,12.544625732421874,-5.877725124359131,-0.38216131925582886,-0.18317782878875732
1710958226244958700,12.577958740234376,-7.156228542327881,-0.580763041973114,0.2816769480705261
1710958226278291700,12.611291748046876,-8.160232543945312,-0.40598437190055847,0.3689517378807068
1710958226311624700,12.644624755859375,-9.647568702697754,0.49142661690711975,0.2354816198348999
1710958226344957700,12.677957763671875,-10.670126914978027,2.4076545238494873,-0.19111883640289307
1710958226378290700,12.711290771484375,-9.693229675292969,5.015972137451172,-1.1217446327209473
1710958226411623700,12.744623779296875,-8.323481559753418,7.153555870056152,-0.678422212600708
1710958226444956700,12.777956787109375,-6.435581207275391,6.795523166656494,1.3641746044158936
1710958226478289700,12.81128955078125,-2.744842052459717,1.8840056657791138,5.215871810913086
1710958226511622700,12.84462255859375,-0.26373329758644104,-0.33031564950942993,5.593833923339844
1710958226544955600,12.87795556640625,0.00007635590736754239,-0.10697462409734726,1.6150038242340088
1710958226578288400,12.911288330078126,1.6665440797805786,-1.4253357648849487,-1.542007565498352
1710958226611621400,12.944621337890625,5.663852214813232,-2.8530385494232178,-2.66176700592041
1710958226644954400,12.977954345703125,8.150229454040527,-3.8131377696990967,-2.7404134273529053
1710958226678287400,13.011287353515625,9.953680038452148,-4.001584053039551,-1.734195351600647
1710958226711620400,13.044620361328125,10.64263916015625,-2.2893028259277344,-0.6022953987121582
1710958226744953300,13.077953369140625,9.673912048339844,0.16813570261001587,-0.8004390001296997
1710958226778286300,13.111286376953124,9.132777214050293,1.8727813959121704,-1.6738742589950562
1710958226811619300,13.144619384765624,8.224370956420898,1.3303489685058594,-0.5499916076660156
1710958226844952300,13.177952392578124,6.05624532699585,0.5906129479408264,-0.3716242015361786
1710958226878285300,13.211285400390626,4.049306392669678,2.143157720565796,-2.324350118637085
1710958226911618300,13.244618408203126,1.8343743085861206,2.353976249694824,-2.9007608890533447
1710958226944951000,13.277950927734375,1.2678134441375732,0.5033381581306458,-0.8500702977180481
1710958226978284000,13.311283935546875,2.1947741508483887,-1.255443811416626,1.7144955396652222
1710958227011617000,13.344616943359375,1.816736102104187,-2.1556036472320557,3.046142578125
1710958227044950000,13.377949951171875,-0.577861487865448,-2.3039631843566895,2.4622490406036377
1710958227078283000,13.411282958984375,-3.643933057785034,-1.910959243774414,-0.22517357766628265
1710958227111616000,13.444615966796874,-5.403172969818115,-1.5289506912231445,-2.129566192626953
1710958227144949000,13.477948974609374,-6.236063480377197,-1.4989428520202637,-1.6350853443145752
1710958227178282000,13.511281982421876,-6.978242874145508,-1.0217183828353882,0.11972606182098389
1710958227211615000,13.544614990234376,-8.448399543762207,-0.19318044185638428,0.7581378221511841
1710958227244948000,13.577947998046875,-10.1948881149292,-0.00916270911693573,0.13049224019050598
1710958227278281000,13.611281005859375,-10.369208335876465,0.8616000413894653,-0.02405211143195629
1710958227311613700,13.64461376953125,-9.297019004821777,1.825669765472412,1.522765874862671
1710958227344946700,13.67794677734375,-8.36425495147705,1.5504831075668335,2.8638811111450195
1710958227378279700,13.71127978515625,-6.767347812652588,2.6106085777282715,2.4475886821746826
1710958227411612700,13.74461279296875,-5.5180888175964355,3.226876974105835,1.6644824743270874
1710958227444945700,13.777945556640624,-2.488973617553711,1.8685053586959839,1.3799803256988525
1710958227478278700,13.811278564453126,3.424333333969116,-0.9945356845855713,-0.42369893193244934
1710958227511611600,13.844611572265626,6.756886959075928,-1.9156169891357422,-2.0419859886169434
1710958227544944600,13.877944580078125,8.465044975280762,-2.2379915714263916,-1.8075734376907349
1710958227578277600,13.911277587890625,10.080965042114258,-2.1006274223327637,-1.9186712503433228
1710958227611610600,13.944610595703125,10.094021797180176,-0.8519791960716248,-2.3193106651306152
1710958227644943600,13.977943603515625,9.58113956451416,1.6437135934829712,-2.5073752403259277
1710958227678276400,14.0112763671875,10.199393272399902,1.659213900566101,-2.7672908306121826
1710958227711609300,14.044609375,9.313054084777832,-0.24838577210903168,-1.397007703781128
1710958227744942300,14.0779423828125,7.463637351989746,-0.8636616468429565,-0.7928034067153931
1710958227778275300,14.111275390625,5.318723201751709,0.5713712573051453,-1.988918662071228
1710958227811608300,14.1446083984375,2.1287262439727783,0.49180838465690613,-0.8536590337753296
1710958227844941300,14.17794140625,0.9299386143684387,0.29061058163642883,0.8917606472969055
1710958227878274300,14.2112744140625,1.0477557182312012,1.0665392875671387,1.102121114730835
1710958227911607300,14.244607177734375,0.3158080279827118,-0.27060532569885254,1.248037338256836
1710958227944940300,14.277940185546875,-1.5743824243545532,-1.8087950944900513,0.646658182144165
1710958227978273300,14.311273193359375,-3.652179479598999,-1.1690852642059326,-1.0786799192428589
1710958228011606300,14.344606201171874,-5.118060111999512,-0.3197021782398224,-1.5360517501831055
1710958228044939000,14.37793896484375,-6.00035285949707,-0.05596888065338135,-0.6142069101333618
1710958228078272000,14.41127197265625,-6.846757888793945,0.5312843918800354,0.23319093883037567
1710958228111605000,14.44460498046875,-8.009963989257812,0.4559974670410156,1.1893196105957031
1710958228144938000,14.47793798828125,-9.104754447937012,-0.11453386396169662,1.5444508790969849
1710958228178271000,14.51127099609375,-9.714838027954102,0.6463527679443359,0.9377269148826599
1710958228211604000,14.54460400390625,-9.411247253417969,1.017137050628662,1.8274259567260742
1710958228244937000,14.57793701171875,-8.315235137939453,0.32458895444869995,3.4246387481689453
1710958228278270000,14.61127001953125,-7.33100700378418,0.36879903078079224,3.0755395889282227
1710958228311603000,14.64460302734375,-5.836187362670898,1.2746855020523071,0.9321529269218445
1710958228344936000,14.67793603515625,-3.2051918506622314,0.5290700793266296,0.10598199814558029
1710958228378269000,14.71126904296875,-1.195046305656433,0.1850867122411728,-0.4367557764053345
1710958228411601700,14.7446015625,2.9004554748535156,0.2271588295698166,-0.9647569060325623
1710958228444934700,14.7779345703125,7.133474349975586,0.28396761417388916,-0.8699992299079895
1710958228478267600,14.811267578125,8.437480926513672,-0.4384356141090393,-0.6319214701652527
1710958228511600600,14.8446005859375,8.561711311340332,-0.9553651213645935,-1.0221765041351318
1710958228544933600,14.87793359375,9.177063941955566,-0.3019876182079315,-1.573848009109497
1710958228578266600,14.9112666015625,9.62786865234375,0.5700731873512268,-1.843995213508606
1710958228611599600,14.944599609375,9.183248519897461,0.939483106136322,-2.1027653217315674
1710958228644932600,14.9779326171875,8.235977172851562,1.6468442678451538,-2.0406880378723145
1710958228678265600,15.011265625,6.810718059539795,1.395785927772522,-1.360891342163086
1710958228711598600,15.0445986328125,5.609562873840332,0.6549809575080872,-1.4423631429672241
1710958228744931600,15.077931640625,4.552492141723633,0.9946883916854858,-1.6733397245407104
1710958228778264300,15.111264404296875,3.319267749786377,1.355164647102356,-1.2249014377593994
1710958228811597300,15.144597412109375,2.051912307739258,0.19417306780815125,0.2635042369365692
1710958228844930300,15.177930419921875,0.7953994870185852,-0.5900784730911255,0.9810206890106201
1710958228878263300,15.21126318359375,-0.4825693368911743,-0.8159392476081848,0.6872795224189758
1710958228911596300,15.24459619140625,-2.307246446609497,-0.8145648241043091,-0.03802524134516716
1710958228944929300,15.27792919921875,-3.515807867050171,-0.1763821393251419,-0.9630007147789001
1710958228978262300,15.31126220703125,-4.62716817855835,0.5777851343154907,-0.8466343283653259
1710958229011595300,15.34459521484375,-6.0518927574157715,1.2839245796203613,0.6373427510261536
1710958229044928300,15.37792822265625,-7.207997798919678,1.0292012691497803,2.359321117401123
1710958229078261200,15.41126123046875,-8.313020706176758,-0.20738264918327332,3.312930107116699
1710958229111594200,15.44459423828125,-9.22875690460205,-0.6816291809082031,3.1248655319213867
1710958229144927000,15.477927001953125,-8.88164234161377,0.10598199814558029,2.2891499996185303
1710958229178260000,15.511260009765625,-7.329479694366455,0.293664813041687,1.926764965057373
1710958229211593000,15.544593017578125,-6.4715447425842285,-0.3046600818634033,2.1620938777923584
1710958229244926000,15.577926025390624,-4.839895725250244,-0.5155550837516785,1.3781477212905884
1710958229278259000,15.611259033203124,-2.6288576126098633,-0.19707459211349487,-0.12468919903039932
1710958229311592000,15.644592041015626,-0.46867257356643677,-0.8228875994682312,-0.05543438717722893
1710958229344925000,15.677925048828126,3.215728998184204,-0.9310075640678406,0.7269846200942993
1710958229378258000,15.7112578125,5.767925262451172,-0.43087637424468994,0.31534990668296814
1710958229411591000,15.7445908203125,7.354066371917725,-0.07673768699169159,-0.3414636254310608
1710958229444924000,15.777923828125,8.55735969543457,0.5454102754592896,-1.0085088014602661
1710958229478257000,15.8112568359375,8.87026596069336,1.652036428451538,-2.0832183361053467
1710958229511589600,15.844589599609375,7.868476390838623,2.035953998565674,-2.6631412506103516
1710958229544922600,15.877922607421874,7.295272350311279,1.826738715171814,-3.085313081741333
1710958229578255600,15.911255615234374,6.898298263549805,0.4005630910396576,-1.6805171966552734
1710958229611588600,15.944588623046876,5.415008068084717,-0.968421995639801,-0.7153021693229675
1710958229644921600,15.977921630859376,4.230499267578125,0.41354358196258545,-2.020911693572998
1710958229678254600,16.011254638671875,2.6264140605926514,1.4919943809509277,-2.8412797451019287
1710958229711587600,16.044587646484374,0.8822161555290222,0.6275691986083984,-1.1128873825073242
1710958229744920600,16.077920654296875,0.19898349046707153,-0.6135960817337036,0.9475768208503723
1710958229778253600,16.111253662109377,-0.4709632396697998,-0.9777373671531677,1.2788851261138916
1710958229811586600,16.144586669921875,-2.0446584224700928,-0.9620080590248108,0.5796176791191101
1710958229844919600,16.17791943359375,-3.800004482269287,-0.14988665282726288,-0.6851415634155273
1710958229878252300,16.211252197265626,-5.8083176612854,1.4817627668380737,-1.1470184326171875
1710958229911585300,16.244585205078124,-7.313674449920654,2.3834495544433594,-0.28961795568466187
1710958229944918300,16.277918212890626,-7.327800273895264,2.6283230781555176,0.896723747253418
1710958229978251300,16.311251220703124,-8.131980895996094,1.583774209022522,1.9508171081542969
1710958230011584300,16.344584228515625,-9.265789031982422,0.8883246183395386,2.020148277282715
1710958230044917200,16.377917236328123,-9.537081718444824,2.104750633239746,2.147357225418091
1710958230078250200,16.411250244140625,-8.872480392456055,2.0771098136901855,3.386155366897583
1710958230111583200,16.444583251953127,-8.384642601013184,2.277925729751587,3.0160584449768066
1710958230144916200,16.477916259765625,-7.32528018951416,2.5312747955322266,2.60549259185791
1710958230178249200,16.511249267578126,-5.339339733123779,1.2661336660385132,2.8122644424438477
1710958230211582200,16.544582275390624,-3.023770332336426,1.5325393676757812,0.911918580532074
1710958230244915000,16.5779150390625,-0.5892385244369507,1.3969312906265259,-1.2953779697418213
1710958230278248000,16.611248046875,4.927093982696533,-0.3337516784667969,-1.482679009437561
1710958230311581000,16.644580810546874,8.685637474060059,-1.3363810777664185,0.00129805039614439
1710958230344914000,16.677913818359375,8.345853805541992,-1.628747820854187,-0.02145601063966751
1710958230378247000,16.711246826171877,9.07405948638916,-0.5982485413551331,-1.2894985675811768
1710958230411580000,16.744579833984375,9.943066596984863,0.22547899186611176,-1.4364837408065796
1710958230444913000,16.777912841796876,10.294150352478027,0.48760882019996643,-0.7860077023506165
1710958230478246000,16.811245849609374,10.42800235748291,0.7069793343544006,-1.236583948135376
1710958230511579000,16.844578857421876,9.542808532714844,0.8079982399940491,-2.285179615020752
1710958230544912000,16.877911865234374,7.265188217163086,0.42217180132865906,-2.8458609580993652
1710958230578244900,16.911244873046876,5.254355430603027,0.3620797097682953,-2.8975539207458496
1710958230611577600,16.94457763671875,3.53092622756958,0.5383855104446411,-2.1441502571105957
1710958230644910600,16.97791064453125,1.6524945497512817,1.0071344375610352,-1.9401272535324097
1710958230678243600,17.01124365234375,1.0289721488952637,-0.19409671425819397,-1.3431004285812378
1710958230711576600,17.04457666015625,-0.06513158977031708,-0.8177717924118042,-0.2032594233751297
1710958230744909600,17.07790966796875,-2.24501633644104,1.0525661706924438,-0.40094485878944397
1710958230778242600,17.11124267578125,-3.986999988555908,2.1007800102233887,-0.12262758612632751
1710958230811575600,17.144575439453124,-4.762547016143799,2.0025100708007812,1.063256025314331
1710958230844908500,17.177908447265626,-5.907198429107666,2.2918989658355713,1.7819942235946655
1710958230878241500,17.211241455078124,-6.647850513458252,2.0527522563934326,2.987119436264038
1710958230911574500,17.244574462890625,-7.500898838043213,1.0249253511428833,4.001355171203613
1710958230944907500,17.277907470703123,-9.220891952514648,1.9451667070388794,4.171093940734863
1710958230978240300,17.311240234375,-9.411476135253906,2.500427007675171,4.266233444213867
1710958231011573200,17.3445732421875,-9.016487121582031,1.472599983215332,4.016396999359131
1710958231044906200,17.37790625,-8.068758010864258,0.8415184617042542,3.3738620281219482
1710958231078239200,17.4112392578125,-6.293712139129639,0.21769069135189056,3.3505735397338867
1710958231111572200,17.444572265625,-4.155135631561279,-0.5064687132835388,3.035987138748169
1710958231144905200,17.4779052734375,-2.381235361099243,-0.05993938818573952,0.8691592812538147
1710958231178238200,17.51123828125,0.23991025984287262,0.7416449189186096,-0.8733588457107544
1710958231211571200,17.5445712890625,5.391108989715576,0.43118181824684143,-1.7518335580825806
1710958231244904200,17.577904296875,8.42831802368164,-0.7948650121688843,-1.9681499004364014
1710958231278237200,17.6112373046875,8.153055191040039,-2.0116727352142334,-1.4296879768371582
1710958231311570200,17.644570068359375,8.292098999023438,-1.4489296674728394,-1.669445514678955
1710958231344903000,17.67790283203125,9.302210807800293,-0.09177979826927185,-2.120403528213501
1710958231378236000,17.71123583984375,10.901485443115234,0.7023980021476746,-3.0528619289398193
1710958231411569000,17.74456884765625,10.864911079406738,0.5657972693443298,-2.8047051429748535
1710958231444902000,17.77790185546875,9.515168190002441,0.2662530541419983,-0.968421995639801
1710958231478235000,17.81123486328125,7.1741719245910645,-1.5688848495483398,-0.16882291436195374
1710958231511568000,17.84456787109375,5.0305562019348145,0.23105297982692719,-2.2859432697296143
1710958231544900900,17.87790087890625,2.9426040649414062,2.180572032928467,-3.714562177658081
1710958231578233900,17.91123388671875,1.2803359031677246,1.0330954790115356,-1.842849850654602
1710958231611566800,17.94456689453125,0.9032140374183655,-0.5614449977874756,1.1536613702774048
1710958231644899800,17.97789990234375,-0.23143476247787476,-0.4611896872520447,2.0228970050811768
1710958231678232800,18.01123291015625,-2.5964062213897705,0.611992597579956,1.0408073663711548
1710958231711565600,18.044565673828124,-3.5677297115325928,1.2203201055526733,-0.25174543261528015
1710958231744898600,18.077898681640626,-4.259514331817627,0.016340164467692375,0.49142661690711975
1710958231778231600,18.1112314453125,-5.354763507843018,-0.5361711978912354,1.3435585498809814
1710958231811564500,18.144564453125,-6.440010070800781,0.7391251921653748,1.2538403272628784
1710958231844897500,18.1778974609375,-7.908868312835693,1.3464601039886475,1.4170893430709839
1710958231878230500,18.21123046875,-9.762484550476074,3.1250946521759033,2.41414475440979
1710958231911563500,18.2445634765625,-9.893129348754883,3.1390676498413086,5.0640764236450195
1710958231944896500,18.277896484375,-9.383835792541504,0.6692595481872559,6.501781940460205
1710958231978229500,18.3112294921875,-9.110939979553223,0.5060105919837952,5.5442023277282715
1710958232011562500,18.3445625,-7.782499313354492,0.4501180648803711,3.9272897243499756
1710958232044895500,18.3778955078125,-6.138556957244873,-0.05375456064939499,3.4818294048309326
1710958232078228200,18.411228271484376,-4.556004047393799,0.7076665759086609,3.088367462158203
1710958232111561200,18.444561279296874,-2.5835020542144775,1.7273997068405151,1.0841774940490723
1710958232144894200,18.477894287109375,-0.6035171151161194,1.6844112873077393,-1.2695696353912354
1710958232178227200,18.511227294921873,2.990860939025879,0.6508577466011047,-2.8040943145751953
1710958232211560200,18.544560302734375,6.442377090454102,-1.1983295679092407,-3.03132963180542
1710958232244893200,18.57789306640625,7.641699314117432,-2.2628836631774902,-3.1116559505462646
1710958232278226200,18.61122607421875,9.38635540008545,-2.3370251655578613,-3.95607590675354
1710958232311559200,18.64455908203125,11.719562530517578,-2.205693006515503,-3.1502156257629395
1710958232344892200,18.67789208984375,12.671262741088867,-1.022481918334961,-1.4701566696166992
1710958232378225200,18.71122509765625,11.706353187561035,0.8839723467826843,-0.02542651630938053
1710958232411558100,18.74455810546875,9.512723922729492,1.9536422491073608,1.1269367933273315
1710958232444891000,18.777890869140624,6.521100044250488,2.9883410930633545,0.5041016936302185
1710958232478224000,18.811223876953125,4.839818954467773,2.572125196456909,-2.134758472442627
1710958232511556900,18.844556884765623,3.644925594329834,1.7725260257720947,-2.7050607204437256
1710958232544889900,18.877889892578125,3.554291248321533,0.8974109888076782,-1.5268890857696533
1710958232578222800,18.911222900390626,0.9611681699752808,-1.7890188694000244,0.7155312299728394
1710958232611555800,18.944555908203125,-3.3673717975616455,-1.1704597473144531,-0.5089121460914612
1710958232644888800,18.977888916015626,-4.800343036651611,0.46928340196609497,-2.696279764175415
1710958232678221800,19.011221923828124,-5.36125373840332,0.8176190853118896,-2.102689027786255
1710958232711554800,19.044554931640626,-6.0386834144592285,3.594759702682495,-1.1575555801391602
1710958232744887800,19.0778876953125,-7.356662750244141,2.856245517730713,1.5982054471969604
1710958232778220800,19.111220703125,-7.986140727996826,0.28786176443099976,2.8537256717681885
1710958232811553500,19.144553466796875,-9.697505950927734,2.0124363899230957,3.551389694213867
1710958232844886500,19.177886474609377,-9.683837890625,2.6899423599243164,5.400577068328857
1710958232878219500,19.211219482421875,-8.990297317504883,0.9920159578323364,6.516289710998535
1710958232911552500,19.244552490234376,-8.856903076171875,0.45714282989501953,6.062277317047119
1710958232944885500,19.277885498046874,-7.186694145202637,0.6521558165550232,4.271731376647949
1710958232978218500,19.311218505859376,-5.297573089599609,-0.20837527513504028,2.6571855545043945
1710958233011551500,19.344551513671874,-3.7671713829040527,0.6084038615226746,0.40819868445396423
1710958233044884500,19.377884521484376,-1.0518789291381836,1.0545514822006226,-1.2933926582336426
1710958233078217500,19.411217529296874,3.7949650287628174,-1.08646821975708,-1.8758355379104614
1710958233111550500,19.444550537109375,6.609443664550781,-2.9311506748199463,-1.717015266418457
1710958233144883500,19.477883544921873,6.711760520935059,-2.454460620880127,-1.6769284009933472
1710958233178216200,19.51121630859375,8.043866157531738,-0.9880454540252686,-2.2867066860198975
1710958233211549200,19.544549072265625,10.259561538696289,-0.197609081864357,-1.6268389225006104
1710958233244882200,19.577882080078126,10.419755935668945,0.6881194114685059,-0.6444438695907593
1710958233278215200,19.611215087890624,10.811156272888184,2.1675150394439697,-1.2256649732589722
1710958233311548200,19.644548095703126,9.862052917480469,1.7613780498504639,-1.2019946575164795
1710958233344881200,19.677881103515624,7.53380823135376,1.2522368431091309,0.11583191156387329
1710958233378214100,19.711214111328125,4.792783737182617,0.6784985661506653,-0.10025530308485031
1710958233411547100,19.744547119140623,0.8364789485931396,2.3142712116241455,-1.3921972513198853
1710958233444880100,19.777880126953125,1.1015866994857788,2.184924364089966,-0.872977077960968
1710958233478213000,19.811213134765627,2.0819201469421387,0.13446275889873505,1.1410627365112305
1710958233511546000,19.844546142578125,1.4937505722045898,-0.4031592011451721,2.239213228225708
1710958233544878800,19.87787890625,0.17569494247436523,-0.14797775447368622,1.1009758710861206
1710958233578211800,19.9112119140625,-1.4790903329849243,-0.9743013978004456,-0.6238277554512024
1710958233611544800,19.944544921875,-3.266047477722168,-1.0479084253311157,-2.2655560970306396
1710958233644877800,19.9778779296875,-4.581965446472168,-0.1629435122013092,-3.5955233573913574
1710958233678210800,20.0112109375,-5.805263519287109,0.5029563903808594,-3.468390703201294
1710958233711543800,20.044543701171875,-6.933345317840576,1.0179005861282349,-2.684368371963501
1710958233744876800,20.077876708984373,-7.217160224914551,0.7881456613540649,-0.49684789776802063
1710958233778209800,20.111209716796875,-8.601874351501465,1.2692642211914062,3.7848095893859863
1710958233811542800,20.144542724609376,-9.436979293823242,1.9378365278244019,5.0424675941467285
1710958233844875800,20.177875732421874,-9.321453094482422,1.618516206741333,4.245312213897705
1710958233878208800,20.211208740234376,-8.104950904846191,1.4933688640594482,3.26849102973938
1710958233911541500,20.24454150390625,-6.149017810821533,1.3572262525558472,2.597780704498291
1710958233944874500,20.27787451171875,-3.494657278060913,0.6904101371765137,2.2337920665740967
1710958233978207500,20.31120751953125,-2.0124363899230957,-0.12491826713085175,2.325953722000122
1710958234011540500,20.34454052734375,-2.39528489112854,-0.2510582208633423,1.356844425201416
1710958234044873500,20.37787353515625,-1.3966258764266968,0.7799755930900574,-1.5985108613967896
1710958234078206500,20.41120654296875,2.340003252029419,1.0146936178207397,-2.111698865890503
1710958234111539500,20.44453955078125,7.345438480377197,-0.3285594582557678,-0.14278554916381836
1710958234144872400,20.47787255859375,9.84250545501709,-0.8380824327468872,0.328330397605896
1710958234178205400,20.511205322265624,9.745762825012207,-0.22838051617145538,-0.8560260534286499
1710958234211538400,20.544538330078126,8.751150131225586,0.1924932450056076,-2.2744133472442627
1710958234244871400,20.577871337890624,9.612292289733887,1.060125470161438,-3.4725139141082764
1710958234278204200,20.6112041015625,10.747551918029785,1.0783745050430298,-3.868724822998047
1710958234311537200,20.644537109375,8.89721965789795,2.1504876613616943,-1.8682763576507568
1710958234344870100,20.6778701171875,7.0494065284729,2.4726333618164062,-1.8163542747497559
1710958234378203100,20.711203125,6.070905685424805,0.5494571328163147,-2.163926362991333
1710958234411536100,20.7445361328125,4.753078937530518,-0.8632798790931702,-3.371189594268799
1710958234444869000,20.777869140625,2.7517142295837402,1.2754490375518799,-4.0743513107299805
1710958234478202000,20.8112021484375,1.466873288154602,2.017704963684082,-2.013963460922241
1710958234511535000,20.84453515625,0.1462215632200241,-0.15416257083415985,0.5806866884231567
1710958234544868000,20.8778681640625,-1.5699537992477417,-1.2333005666732788,1.7827577590942383
1710958234578201000,20.911201171875,-3.278646230697632,-0.22364644706249237,1.5240639448165894
1710958234611534000,20.9445341796875,-4.7703351974487305,0.9794935584068298,1.0837193727493286
1710958234644866800,20.97786669921875,-5.7973222732543945,1.6918941736221313,1.0698989629745483
1710958234678199800,21.01119970703125,-7.051773548126221,1.336839199066162,1.3373737335205078
1710958234711532800,21.04453271484375,-8.518647193908691,1.5339901447296143,1.1880215406417847
1710958234744865800,21.07786572265625,-9.94360065460205,2.085432529449463,2.0227444171905518
1710958234778198800,21.11119873046875,-10.395856857299805,2.3386287689208984,3.978829860687256
1710958234811531800,21.14453173828125,-9.72598648071289,1.8089478015899658,4.07228946685791
1710958234844864800,21.17786474609375,-8.85407829284668,1.0569947957992554,3.238788604736328
1710958234878197800,21.21119775390625,-7.089569568634033,0.4992912709712982,2.510429620742798
1710958234911530800,21.24453076171875,-5.131957054138184,0.0022906772792339325,1.627297043800354
1710958234944863700,21.27786376953125,-4.077099800109863,0.5712185502052307,-0.7035433053970337
1710958234978196700,21.31119677734375,-1.2330715656280518,-0.2874799966812134,-1.8701088428497314
1710958235011529500,21.344529541015625,4.7977471351623535,-1.8546849489212036,1.3311125040054321
1710958235044862500,21.377862548828126,9.473477363586426,-1.0570712089538574,2.064587354660034
1710958235078195500,21.411195556640624,9.334051132202148,0.09918632358312607,-0.81998610496521
1710958235111528400,21.444528564453126,8.932877540588379,-0.31176117062568665,-2.291593551635742
1710958235144861400,21.477861328125,10.491989135742188,-0.9448279738426208,-1.2203965187072754
1710958235178194400,21.5111943359375,11.39963150024414,-0.12560546398162842,-0.9433772563934326
1710958235211527400,21.54452734375,10.291172981262207,-0.2056264579296112,0.4882960319519043
1710958235244860400,21.5778603515625,8.224218368530273,-0.8652651309967041,3.2990334033966064
1710958235278193400,21.611193359375,5.929799556732178,-1.589271903038025,3.14349627494812
1710958235311526400,21.6445263671875,3.924159049987793,0.3813977539539337,-0.061771929264068604
1710958235344859400,21.677859375,3.0033068656921387,1.9840319156646729,-1.5110833644866943
1710958235378192100,21.711192138671876,2.5489892959594727,1.5571260452270508,-1.295607089996338
1710958235411525000,21.744525146484374,1.3055332899093628,0.4243861436843872,-1.2771289348602295
1710958235444858000,21.777858154296876,-0.6213080286979675,0.04092676565051079,-1.5278053283691406
1710958235478191000,21.811191162109374,-2.2676939964294434,0.5267794132232666,-1.4599249362945557
1710958235511524000,21.844524169921876,-3.833677291870117,0.5445703268051147,-0.6399388313293457
1710958235544857000,21.877857177734374,-5.564513206481934,-0.3022930324077606,0.9919396042823792
1710958235578190000,21.911190185546875,-6.773074626922607,-0.17035003006458282,1.9001168012619019
1710958235611523000,21.944523193359377,-7.876188278198242,-0.14347274601459503,1.659213900566101
1710958235644856000,21.97785595703125,-9.372305870056152,-0.39590537548065186,0.8567132949829102
1710958235678189000,22.01118896484375,-9.965056419372559,-0.5351021885871887,1.2065759897232056
1710958235711522000,22.04452197265625,-10.056073188781738,-0.8352572917938232,1.7706935405731201
1710958235744854800,22.077854736328124,-9.39612865447998,-0.006948387715965509,0.5164713859558105
1710958235778187800,22.111187744140626,-7.768679141998291,0.5667899250984192,0.25289076566696167
1710958235811520800,22.144520751953124,-5.363391876220703,0.5074613690376282,0.5174639821052551
1710958235844853800,22.177853759765625,-3.8144357204437256,0.425607830286026,0.3548259139060974
1710958235878186800,22.211186767578123,-2.461103677749634,0.6221479177474976,-0.44790375232696533
1710958235911519700,22.244519775390625,2.0386264324188232,0.25655585527420044,-0.1799708753824234
1710958235944852700,22.277852783203127,7.064982891082764,-0.40102121233940125,0.6033644080162048
1710958235978185700,22.311185791015625,8.935855865478516,0.39468368887901306,0.5391490459442139
1710958236011518700,22.344518798828126,8.853161811828613,1.6504329442977905,-0.2441098392009735
1710958236044851700,22.377851806640624,8.877901077270508,1.6652460098266602,-1.6460806131362915
1710958236078184700,22.411184814453126,10.118608474731445,0.5593833923339844,-2.1412487030029297
1710958236111517400,22.444517333984376,10.522684097290039,-0.5189911127090454,-1.9356986284255981
1710958236144850400,22.477850341796874,7.983544826507568,-0.13675342500209808,-1.3442457914352417
1710958236178183400,22.511183349609375,5.085914134979248,0.11086877435445786,-0.7415685653686523
1710958236211516400,22.544516357421877,3.702345132827759,0.682163655757904,-0.7630245685577393
1710958236244849400,22.577849365234375,3.1995415687561035,0.9022977352142334,-1.1647330522537231
1710958236278182400,22.611182373046876,3.8865156173706055,-0.36841726303100586,-0.29984965920448303
1710958236311515400,22.644515380859374,4.233705997467041,-1.8890451192855835,-0.299391508102417
1710958236344848400,22.677848388671876,1.8230736255645752,-0.25747212767601013,-2.171485662460327
1710958236378181400,22.711181396484374,-2.7659926414489746,2.5311219692230225,-1.6320312023162842
1710958236411514400,22.744514404296876,-4.102297306060791,1.8045954704284668,-0.05131116881966591
1710958236444847400,22.777847412109374,-4.271883964538574,0.333064466714859,0.9686510562896729
1710958236478180000,22.81118017578125,-5.432951927185059,0.4680617153644562,1.2156623601913452
1710958236511513000,22.84451318359375,-6.635480880737305,0.7595885396003723,1.1141854524612427
1710958236544846000,22.87784619140625,-7.879776954650879,1.0850938558578491,0.8605310916900635
1710958236578179000,22.911178955078125,-10.108376502990723,1.938523769378662,1.2681952714920044
1710958236611512000,22.944511962890626,-10.253070831298828,1.7939057350158691,2.961311101913452
1710958236644845000,22.977844970703124,-9.764546394348145,1.1823712587356567,3.1396021842956543
1710958236678178000,23.011177978515626,-8.705718994140625,1.2355912923812866,2.416740894317627
1710958236711511000,23.044510986328124,-6.380910396575928,0.12064233422279358,2.1046743392944336
1710958236744844000,23.077843994140625,-4.908921241760254,-0.4497362971305847,1.266897201538086
1710958236778177000,23.111177001953124,-2.53440523147583,-0.1220930963754654,-0.9688037633895874
1710958236811510000,23.144510009765625,5.068047046661377,-2.0761935710906982,0.6577298045158386
1710958236844842800,23.1778427734375,10.262768745422363,-1.9631867408752441,1.6742559671401978
1710958236878175700,23.21117578125,9.693153381347656,0.5961105823516846,-1.1811494827270508
1710958236911508700,23.2445087890625,8.304010391235352,2.803788900375366,-4.280588626861572
1710958236944841700,23.277841796875,8.874159812927246,-0.20104511082172394,-2.6752054691314697
1710958236978174700,23.3111748046875,12.504119873046875,-1.0727241039276123,-1.031491994857788
1710958237011507700,23.3445078125,11.903580665588379,0.9705599546432495,-2.2475361824035645
1710958237044840700,23.3778408203125,8.171074867248535,1.9847954511642456,-3.4638094902038574
1710958237078173700,23.411173583984375,6.214530944824219,1.148545503616333,-3.233520030975342
1710958237111506700,23.444506591796873,4.170788764953613,0.976973831653595,-1.9043927192687988
1710958237144839700,23.477839599609375,1.1797751188278198,1.7296903133392334,-0.9728506207466125
1710958237178172700,23.511172607421877,0.9393303990364075,1.732820987701416,-2.021599054336548
1710958237211505400,23.54450537109375,2.3984153270721436,0.012827792204916477,-3.4047863483428955
1710958237244838400,23.57783837890625,2.5276095867156982,-2.2964038848876953,-3.1237964630126953
1710958237278171400,23.61117138671875,0.9456679224967957,-2.221651554107666,-1.2738455533981323
1710958237311504400,23.64450439453125,-2.971161127090454,1.3103437423706055,1.1045645475387573
1710958237344837400,23.67783740234375,-5.259700298309326,3.5810155868530273,3.194272994995117
1710958237378170400,23.71117041015625,-5.719515800476074,2.3929178714752197,3.9059865474700928
1710958237411503400,23.74450341796875,-5.894752502441406,-0.17447324097156525,3.3888278007507324
1710958237444836400,23.77783642578125,-6.555154800415039,-0.8925241827964783,2.69208025932312
1710958237478169300,23.81116943359375,-7.275190830230713,-0.5389963388442993,2.525547981262207
1710958237511502300,23.84450244140625,-8.936237335205078,1.2123026847839355,2.9303107261657715
1710958237544835300,23.87783544921875,-11.472475051879883,1.0927294492721558,4.972373008728027
1710958237578168000,23.91116796875,-12.786942481994629,0.9683456420898438,7.420267105102539
1710958237611501000,23.9445009765625,-9.775617599487305,-0.5166240930557251,5.413022994995117
1710958237644834000,23.977833984375,-7.184250831604004,0.27839362621307373,0.2586938142776489
1710958237678167000,24.0111669921875,-4.813323497772217,0.5708367824554443,-1.0545514822006226
1710958237711500000,24.0445,0.41445985436439514,-0.7727981209754944,0.420873761177063
1710958237744833000,24.0778330078125,8.339668273925781,-0.5247941613197327,0.009468132629990578
1710958237778166000,24.111166015625,12.474035263061523,0.5650337338447571,-1.7183897495269775
1710958237811499000,24.1444990234375,12.124554634094238,1.1367104053497314,-2.7295708656311035
1710958237844832000,24.17783203125,12.453113555908203,1.1567156314849854,-2.6999449729919434
1710958237878165000,24.2111650390625,12.037280082702637,1.8612515926361084,-3.3238489627838135
1710958237911498000,24.244498046875,11.58594036102295,2.4883625507354736,-6.032650947570801
1710958237944830700,24.277830810546874,9.636726379394531,1.215127944946289,-6.178872585296631
1710958237978163700,24.311163818359375,5.510529518127441,-1.664864182472229,-4.549972057342529
1710958238011496700,24.34449658203125,1.9847954511642456,-0.2447206825017929,-1.6543270349502563
1710958238044829700,24.37782958984375,0.3142045736312866,1.4167075157165527,-1.1602280139923096
1710958238078162700,24.41116259765625,-0.5067741274833679,0.1304158866405487,-1.4294589757919312
1710958238111495700,24.44449560546875,-2.3956665992736816,-0.9006179571151733,0.6086329221725464
1710958238144828700,24.47782861328125,-3.7568633556365967,0.7811973094940186,1.9117991924285889
1710958238178161700,24.51116162109375,-5.008642196655273,2.572125196456909,2.8974013328552246
1710958238211494700,24.54449462890625,-7.488452911376953,2.6503899097442627,3.6780641078948975
1710958238244827600,24.57782763671875,-9.932605743408203,1.7572548389434814,3.6767659187316895
1710958238278160600,24.61116064453125,-11.707193374633789,3.387148141860962,2.4056692123413086
1710958238311493400,24.644493408203125,-10.346607208251953,4.555011749267578,2.0679471492767334
1710958238344826400,24.677826416015623,-8.659141540527344,2.15407657623291,4.764226913452148
1710958238378159400,24.711159423828125,-8.4467191696167,-0.20806984603405,7.091402053833008
1710958238411492400,24.744492431640627,-8.443970680236816,-1.3559281826019287,5.4586076736450195
1710958238444825300,24.777825439453125,-5.633768081665039,-0.5524349808692932,-0.3222982883453369
1710958238478158300,24.811158447265626,-1.0078216791152954,0.34665581583976746,-0.59023118019104
1710958238511491300,24.8444912109375,3.8857522010803223,-0.4178195297718048,1.55338454246521
1710958238544824300,24.87782421875,7.423397541046143,0.7191199064254761,0.9342145323753357
1710958238578157300,24.9111572265625,8.777112007141113,1.2767471075057983,0.19417306780815125
1710958238611490300,24.944490234375,9.103838920593262,1.0002623796463013,-0.9592592716217041
1710958238644823300,24.9778232421875,9.297859191894531,1.8406355381011963,-2.540742874145508
1710958238678156000,25.011156005859377,7.7935709953308105,3.1179935932159424,-3.821460485458374
1710958238711489000,25.044489013671875,8.517043113708496,3.086611270904541,-5.464487075805664
1710958238744822000,25.077822021484376,9.625655174255371,0.4495072364807129,-4.638545036315918
1710958238778155000,25.111155029296874,7.888786792755127,-3.198167085647583,-0.7944068312644958
1710958238811488000,25.144488037109376,5.059648036956787,-3.9005651473999023,1.1699252128601074
1710958238844821000,25.177821044921874,1.3689850568771362,-0.8151756525039673,0.5577035546302795
1710958238878154000,25.211154052734376,-2.1933233737945557,2.5514326095581055,-2.311140537261963
1710958238911487000,25.244487060546874,-1.6894508600234985,1.808107852935791,-2.4684338569641113
1710958238944820000,25.277820068359375,-1.8245244026184082,-1.6337873935699463,-0.1913478970527649
1710958238978153000,25.311153076171873,-2.892819881439209,-0.9609391093254089,-0.10254598408937454
1710958239011486000,25.34448583984375,-4.26165246963501,1.6121786832809448,-1.0027821063995361
1710958239044818700,25.377818603515625,-5.530916690826416,3.761291980743408,-0.4983749985694885
1710958239078151700,25.411151611328126,-6.803082466125488,4.9094557762146,1.166031002998352
1710958239111484700,25.444484619140624,-8.383267402648926,5.289708137512207,2.3962011337280273
1710958239144817700,25.477817626953126,-9.098875045776367,4.702301979064941,2.1706457138061523
1710958239178150700,25.511150634765624,-8.061962127685547,4.98497200012207,1.6251591444015503
1710958239211483600,25.544483642578125,-6.450165271759033,5.849626064300537,2.578920841217041
1710958239244816600,25.577816650390623,-4.791256904602051,5.155627250671387,4.022658348083496
1710958239278149600,25.611149658203125,-2.7450711727142334,1.6392086744308472,4.382218360900879
1710958239311482600,25.644482666015627,-0.9168053865432739,-0.3104631304740906,3.570478677749634
1710958239344815600,25.677815673828125,0.34604495763778687,-0.26403874158859253,1.8782025575637817
1710958239378148600,25.711148681640626,1.601336121559143,-1.431978702545166,0.1169772520661354
1710958239411481300,25.7444814453125,3.4265477657318115,-1.722741961479187,-1.4309097528457642
1710958239444814300,25.777814453125,5.442114353179932,-2.1644608974456787,-1.9952561855316162
1710958239478147300,25.811147216796876,6.639833450317383,-3.261847972869873,-1.5125341415405273
1710958239511480300,25.844480224609374,7.734700679779053,-3.118527889251709,-0.8928295969963074
1710958239544813300,25.877813232421875,8.723052024841309,-2.1485788822174072,-0.8092198967933655
1710958239578146300,25.911146240234373,8.647994041442871,-1.7369441986083984,-0.06085565686225891
1710958239611479300,25.944479248046875,7.855495929718018,-0.4886777997016907,1.326225757598877
1710958239644812300,25.977812255859376,7.023063659667969,0.9186379313468933,2.2758641242980957
1710958239678145300,26.011145263671875,4.987720489501953,1.6527236700057983,1.6150038242340088
1710958239711478300,26.044478271484376,2.904273271560669,2.64725923538208,-0.47882789373397827
1710958239744811300,26.077811279296874,1.7668757438659668,3.5855207443237305,-2.7935571670532227
1710958239778144000,26.11114404296875,0.8018133640289307,2.6979596614837646,-3.136242628097534
1710958239811477000,26.14447705078125,0.17302247881889343,0.4416425824165344,-2.1142187118530273
1710958239844810000,26.17781005859375,-0.37712183594703674,-1.047221302986145,-1.0854755640029907
1710958239878143000,26.21114306640625,-1.3667707443237305,-2.048323631286621,0.03680354729294777
1710958239911476000,26.24447607421875,-2.62435245513916,-2.2847979068756104,1.0481375455856323
1710958239944809000,26.27780908203125,-4.089546203613281,-1.4659570455551147,1.1360231637954712
1710958239978142000,26.311141845703126,-5.486477375030518,-0.20661908388137817,0.5722111463546753
1710958240011475000,26.344474853515624,-7.103924751281738,-0.6375718116760254,1.6111860275268555
1710958240044808000,26.377807861328126,-8.149924278259277,-1.899276852607727,2.3277862071990967
1710958240078141000,26.411140869140624,-8.885308265686035,-2.34305739402771,2.887322187423706
1710958240111474000,26.444473876953126,-8.990373611450195,-2.211496114730835,3.1651813983917236
1710958240144806700,26.477806640625,-8.347990989685059,-2.0981075763702393,3.116084575653076
1710958240178139600,26.5111396484375,-7.441570281982422,-1.8029919862747192,1.9905985593795776
1710958240211472600,26.54447265625,-6.507203102111816,-1.134266972541809,0.6197808980941772
1710958240244805600,26.5778056640625,-5.2867302894592285,-0.058335911482572556,-0.4253787696361542
1710958240278138600,26.611138671875,-1.3182083368301392,0.4074351191520691,-1.0130901336669922
1710958240311471600,26.6444716796875,2.2804455757141113,0.5181511640548706,0.02733541466295719
1710958240344804600,26.6778046875,4.169643402099609,0.26342788338661194,-0.06100837141275406
1710958240378137600,26.7111376953125,6.088390827178955,0.17600037157535553,-0.5842754244804382
1710958240411470600,26.744470703125,6.735507488250732,0.32962843775749207,-0.5978667736053467
1710958240444803600,26.777803466796875,6.232245445251465,0.3512371778488159,-0.48455458879470825
1710958240478136600,26.811136474609373,6.600357532501221,1.3246986865997314,-0.7726454138755798
1710958240511469600,26.844469482421875,8.153284072875977,2.2565460205078125,-1.6768521070480347
1710958240544802300,26.87780224609375,8.683804512023926,2.0263330936431885,-2.067183494567871
1710958240578135300,26.91113525390625,8.417398452758789,1.9726548194885254,-2.567009210586548
1710958240611468300,26.94446826171875,6.897229194641113,1.0685245990753174,-1.9973177909851074
1710958240644801300,26.97780126953125,5.288181304931641,0.4898231327533722,-2.355656147003174
1710958240678134300,27.01113427734375,3.3823375701904297,1.1133455038070679,-3.3565292358398438
1710958240711467300,27.04446728515625,1.4929107427597046,1.5685794353485107,-3.3301100730895996
1710958240744800300,27.07780029296875,0.6058077812194824,1.2475028038024902,-2.481566905975342
1710958240778133200,27.11113330078125,0.1468324065208435,0.08674030750989914,-1.7900879383087158
1710958240811466200,27.14446630859375,0.0942995473742485,-0.50196373462677,-0.8850412964820862
1710958240844799200,27.17779931640625,-0.9807916283607483,0.09597937762737274,-0.49287739396095276
1710958240878132200,27.21113232421875,-2.557159423828125,1.3188955783843994,-0.4062134325504303
1710958240911465000,27.24446484375,-3.494351863861084,1.696399211883545,0.6529957056045532
1710958240944798000,27.2777978515625,-4.3495378494262695,1.2650647163391113,1.9409672021865845
1710958240978131000,27.311130859375,-5.438144207000732,0.895349383354187,2.610684871673584
1710958241011464000,27.3444638671875,-6.55851411819458,1.3771551847457886,2.745758533477783
1710958241044797000,27.377796875,-7.708739757537842,1.3230187892913818,4.0935163497924805
1710958241078130000,27.4111298828125,-8.360132217407227,0.8219713568687439,4.919992923736572
1710958241111463000,27.444462890625,-8.611648559570312,1.0116394758224487,3.967071056365967
1710958241144796000,27.4777958984375,-8.257739067077637,1.3188955783843994,2.806079626083374
1710958241178129000,27.51112890625,-7.507694721221924,1.0595145225524902,1.9151588678359985
1710958241211462000,27.5444619140625,-6.122140407562256,0.5913001298904419,1.4138823747634888
1710958241244795000,27.577794921875,-4.425282955169678,0.0689493864774704,0.9762866497039795
1710958241278127600,27.611127685546876,-2.3671858310699463,-1.9735711812973022,0.2259371280670166
1710958241311460600,27.644460693359374,1.861709713935852,-1.2106229066848755,0.7402704954147339
1710958241344793600,27.677793701171876,5.8479461669921875,0.20432840287685394,1.177255392074585
1710958241378126600,27.711126708984374,6.92402982711792,0.567018985748291,0.6491779088973999
1710958241411459600,27.74445947265625,6.515373229980469,0.9196305274963379,-0.27113983035087585
1710958241444792600,27.77779248046875,7.450580596923828,1.4038797616958618,-0.569844126701355
1710958241478125600,27.81112548828125,9.16538143157959,1.535975456237793,-0.23914669454097748
1710958241511458600,27.84445849609375,9.3230562210083,1.3230952024459839,0.27885177731513977
1710958241544791600,27.87779150390625,9.69697093963623,2.512949228286743,0.21601086854934692
1710958241578124500,27.91112451171875,10.084172248840332,4.234011650085449,-0.44126078486442566
1710958241611457500,27.94445751953125,7.1509599685668945,3.313159227371216,0.5202127695083618
1710958241644790300,27.977790283203124,4.4088664054870605,2.0635182857513428,0.6948387622833252
1710958241678123300,28.011123291015625,3.559636116027832,2.232112169265747,-0.5363239049911499
1710958241711456300,28.044456298828123,2.553570508956909,1.8968334197998047,-1.0805888175964355
1710958241744789200,28.077789306640625,0.7049940824508667,0.5386145710945129,-0.46966519951820374
1710958241778122200,28.111122314453127,-0.3584909737110138,0.2653367817401886,-0.9188669919967651
1710958241811455200,28.144455322265625,-1.3091983795166016,0.16134002804756165,-1.2458993196487427
1710958241844788200,28.177788330078126,-2.3042685985565186,-0.9646041989326477,-0.49677154421806335
1710958241878121200,28.211121337890624,-2.448657512664795,-1.8736976385116577,0.11995512992143631
1710958241911454200,28.2444541015625,-2.480116128921509,-2.315951108932495,0.1313321590423584
1710958241944787200,28.277787109375,-3.3401129245758057,-2.3365671634674072,-0.07734853774309158
1710958241978120200,28.3111201171875,-4.847531318664551,-1.675248622894287,-0.8945094347000122
1710958242011453000,28.344452880859375,-6.601044654846191,-1.2263522148132324,-1.0293539762496948
1710958242044786000,28.377785888671873,-8.238649368286133,-0.9008470177650452,0.42072105407714844
1710958242078119000,28.411118896484375,-8.704268455505371,-0.4930301010608673,2.390321731567383
1710958242111452000,28.444451904296876,-8.957693099975586,-0.8390750885009766,3.296055555343628
1710958242144785000,28.477784912109374,-8.754738807678223,-0.7979192137718201,2.5968644618988037
1710958242178118000,28.511117919921876,-7.6849164962768555,-0.35803285241127014,1.6593666076660156
1710958242211451000,28.544450927734374,-6.29707145690918,-0.4157579243183136,1.054627776145935
1710958242244783900,28.577783935546876,-4.8602824211120605,0.03665083646774292,0.3850628435611725
1710958242278116900,28.611116943359374,-3.6745517253875732,1.3936480283737183,-0.7429429888725281
1710958242311449900,28.644449951171875,-1.3518049716949463,0.6368846297264099,-1.3795984983444214
1710958242344782800,28.677782958984373,4.164909362792969,-0.8499175906181335,-0.5602996349334717
1710958242378115600,28.711115478515627,8.20658016204834,-1.0320264101028442,0.23059484362602234
1710958242411448600,28.744448486328125,8.291258811950684,-1.188937783241272,0.19600561261177063
1710958242444781600,28.777781494140626,7.416067600250244,-0.19394400715827942,-0.8841250538825989
1710958242478114600,28.811114501953124,7.654374122619629,1.158700942993164,-2.214550495147705
1710958242511447600,28.844447509765626,8.831934928894043,1.747404932975769,-2.5043210983276367
1710958242544780500,28.877780517578124,8.868356704711914,1.1132690906524658,-1.7857356071472168
1710958242578113500,28.911113525390626,8.084486961364746,1.5690375566482544,-1.3828054666519165
1710958242611446500,28.944446533203124,6.642963886260986,2.2476887702941895,-1.2673553228378296
1710958242644779500,28.977779541015625,4.968326091766357,2.2444818019866943,-1.1513707637786865
1710958242678112500,29.011112548828127,3.189462661743164,1.8402537107467651,-1.8562121391296387
1710958242711445500,29.044445556640625,1.578123927116394,1.7687846422195435,-2.5692999362945557
1710958242744778200,29.0777783203125,0.42660045623779297,1.7871099710464478,-2.6168696880340576
1710958242778111200,29.111111328125,-0.3219928741455078,1.519940733909607,-1.9518096446990967
1710958242811444200,29.1444443359375,-0.6656708121299744,0.8364025950431824,-0.7984537482261658
1710958242844777200,29.177777099609376,-1.1513707637786865,0.2848075330257416,0.056274302303791046
1710958242878110200,29.211110107421874,-2.0051825046539307,0.1023932695388794,0.4536304473876953
1710958242911443200,29.244443115234375,-3.0740888118743896,0.11613733321428299,0.80853271484375
1710958242944776200,29.277776123046873,-4.111460208892822,0.20081603527069092,1.5188716650009155
1710958242978109200,29.311109130859375,-5.491211414337158,-0.02901524491608143,2.0092294216156006
1710958243011442200,29.344442138671877,-7.021994590759277,-0.5418978929519653,2.9375643730163574
1710958243044775200,29.377775146484375,-8.127169609069824,-0.09246700257062912,3.693106174468994
1710958243078108200,29.411108154296876,-8.987395286560059,0.1265217363834381,3.81794810295105
1710958243111441000,29.44444091796875,-9.42338752746582,0.09361234307289124,3.634770154953003
1710958243144774000,29.47777392578125,-8.9127197265625,0.4014793634414673,3.048433303833008
1710958243178107000,29.51110693359375,-7.815332412719727,0.40155571699142456,2.3978044986724854
1710958243211439900,29.54443994140625,-5.645373821258545,-0.06581879407167435,1.7097615003585815
1710958243244772900,29.57777294921875,-2.9675724506378174,0.48692160844802856,0.674757182598114
1710958243278105900,29.61110595703125,-0.7508076429367065,1.0570712089538574,-0.05497625470161438
1710958243311438800,29.64443896484375,1.7672574520111084,-0.05673243850469589,-0.14973393082618713
1710958243344771800,29.677771728515626,5.414931774139404,-0.4492017924785614,0.06169557198882103
1710958243378104800,29.711104736328124,6.507890224456787,-0.38956785202026367,-0.5209763646125793
1710958243411437800,29.744437744140626,5.292227745056152,-0.46485477685928345,-2.2749478816986084
1710958243444770800,29.777770751953124,5.999894618988037,-0.5509842038154602,-2.662301540374756
1710958243478103600,29.811103515625,8.44305419921875,-0.41705596446990967,-1.6925814151763916
1710958243511436500,29.8444365234375,7.766617298126221,0.6006155610084534,-1.8744611740112305
1710958243544769500,29.87776953125,7.5533552169799805,2.338399648666382,-2.139416217803955
1710958243578102500,29.9111025390625,7.761654376983643,2.2137868404388428,-1.091889500617981
1710958243611435500,29.944435546875,5.336972713470459,-0.32306185364723206,1.4453409910202026
1710958243644768500,29.9777685546875,3.1570112705230713,0.2739650011062622,0.003359660040587187
1710958243678101500,30.0111015625,1.1575555801391602,3.2237462997436523,-2.541200876235962
1710958243711434500,30.0444345703125,-0.4274403750896454,2.8643391132354736,-2.3107588291168213
1710958243744767500,30.077767578125,-0.49287739396095276,0.2456369549036026,-0.9343672394752502
1710958243778100500,30.1111005859375,-0.5571690797805786,-2.1319332122802734,-1.0204203128814697
1710958243811433500,30.14443359375,-2.031219959259033,-2.381082534790039,-1.129380226135254
1710958243844766200,30.17776611328125,-4.374124526977539,0.18722468614578247,-2.216840982437134
1710958243878099200,30.21109912109375,-5.138523578643799,2.6335153579711914,-1.0033929347991943
1710958243911432200,30.24443212890625,-6.036545276641846,2.0935263633728027,1.7131974697113037
1710958243944765200,30.27776513671875,-7.833046913146973,0.9781955480575562,1.9792978763580322
1710958243978098200,30.31109814453125,-8.696784973144531,2.721935272216797,3.0620245933532715
1710958244011431200,30.34443115234375,-8.559803009033203,1.6764702796936035,5.5572590827941895
1710958244044764200,30.37776416015625,-7.589166164398193,0.26037365198135376,5.325977325439453
1710958244078097200,30.41109716796875,-6.0170745849609375,0.32932302355766296,2.4162826538085938
1710958244111430100,30.44443017578125,-3.629578113555908,0.8078454732894897,-0.5089884996414185
1710958244144763100,30.47776318359375,-0.659562349319458,0.18783552944660187,0.26854372024536133
1710958244178096000,30.51109619140625,3.4609079360961914,-0.26197710633277893,0.870686411857605
1710958244211428900,30.544428955078125,6.303409099578857,0.4829511046409607,0.08796200156211853
1710958244244761900,30.577761962890627,6.286381721496582,0.2844257652759552,-0.4169796109199524
1710958244278094800,30.6110947265625,5.85206937789917,0.2625879645347595,-1.1945881843566895
1710958244311427800,30.644427734375,5.881313800811768,0.6631510257720947,-2.0932209491729736
1710958244344760800,30.6777607421875,5.551379680633545,0.6807892918586731,-2.541659116744995
1710958244378093800,30.71109375,6.547824382781982,1.0501991510391235,-2.119945526123047
1710958244411426800,30.7444267578125,7.299777507781982,0.6734591126441956,-1.5165810585021973
1710958244444759800,30.777759765625,6.347772121429443,-0.21952323615550995,0.8431219458580017
1710958244478092800,30.8110927734375,3.7014288902282715,-1.0009496212005615,2.7000975608825684
1710958244511425800,30.84442578125,2.1329259872436523,0.5945834517478943,0.781884491443634
1710958244544758800,30.8777587890625,1.0256125926971436,2.2689921855926514,-0.21204034984111786
1710958244578091500,30.911091552734376,0.1963873952627182,1.9560856819152832,0.24365170300006866
1710958244611424500,30.944424560546874,0.569309651851654,-0.052609220147132874,0.20280128717422485
1710958244644757500,30.977757568359376,-0.006719320081174374,-1.9252378940582275,-0.6642200350761414
1710958244678090500,31.011090576171874,-1.673187017440796,-1.625540852546692,-2.0530576705932617
1710958244711423500,31.044423583984376,-3.4552574157714844,0.08307522535324097,-3.2723851203918457
1710958244744756500,31.077756591796874,-4.73696756362915,1.2733874320983887,-2.4250636100769043
1710958244778089500,31.11108935546875,-5.4777727127075195,0.8370898365974426,-0.16393613815307617
1710958244811422500,31.14442236328125,-6.246753215789795,0.03504735976457596,1.488405704498291
1710958244844755500,31.17775537109375,-6.7155022621154785,0.3012240529060364,2.713383436203003
1710958244878088400,31.21108837890625,-6.038607120513916,0.322603702545166,2.7685887813568115
1710958244911421400,31.24442138671875,-4.9831390380859375,0.6138251423835754,1.8203247785568237
1710958244944754200,31.277754150390624,-4.267302513122559,0.565568208694458,1.3689087629318237
1710958244978087200,31.311087158203126,-3.24894380569458,0.2602209448814392,1.3667707443237305
1710958245011420200,31.344420166015624,-1.816736102104187,0.3035911023616791,0.9956046938896179
1710958245044753200,31.377753173828125,-1.1812258958816528,0.16286714375019073,0.6033644080162048
1710958245078086100,31.411086181640623,-1.1842801570892334,-0.13453911244869232,0.42224815487861633
1710958245111419100,31.444419189453125,-0.08788564801216125,-0.4390464723110199,0.1047603040933609
1710958245144752000,31.477752197265627,2.1599559783935547,-0.9698727130889893,-0.2196759432554245
1710958245178085000,31.511085205078125,3.099515438079834,-1.5494904518127441,-0.6004628539085388
1710958245211418000,31.544418212890626,2.746140241622925,-0.5273902416229248,-1.3515759706497192
1710958245244751000,31.577751220703124,2.800123929977417,0.7694385051727295,-2.1506404876708984
1710958245278084000,31.611083984375,2.2829651832580566,0.4650838375091553,-1.1357941627502441
1710958245311416800,31.644416748046876,2.466677665710449,0.3865135908126831,0.46607646346092224
1710958245344749800,31.677749755859374,3.1648759841918945,0.7515711784362793,0.5661790370941162
1710958245378082800,31.711082763671875,4.155670166015625,0.9253572225570679,-0.7399650812149048
1710958245411415800,31.744415771484373,4.471096515655518,0.8642725348472595,-1.9858644008636475
1710958245444748800,31.777748779296875,2.76721453666687,1.119301199913025,-1.4134242534637451
1710958245478081800,31.811081787109377,1.2519314289093018,0.9865183234214783,0.16042375564575195
1710958245511414800,31.844414794921875,1.261552333831787,-0.32191649079322815,1.7744349241256714
1710958245544747800,31.877747802734376,0.35116082429885864,-0.3446705639362335,1.1419025659561157
1710958245578080800,31.911080810546874,-1.7615307569503784,0.20432840287685394,-0.26877278089523315
1710958245611413800,31.944413818359376,-3.986083745956421,-0.8296833038330078,-0.5008183717727661
1710958245644746800,31.977746826171874,-5.02902889251709,-1.815285325050354,0.4745519757270813
1710958245678079500,32.01107958984375,-6.033262252807617,-1.177178978919983,1.5052039623260498
1710958245711412500,32.04441259765625,-6.280044078826904,-0.08719844371080399,1.7638977766036987
1710958245744745500,32.07774536132813,-5.848480701446533,0.17981816828250885,1.9214963912963867
1710958245778078500,32.11107836914063,-4.970616817474365,0.2593810260295868,2.0048770904541016
1710958245811411500,32.14441137695312,-4.076412677764893,-0.07643226534128189,1.7303775548934937
1710958245844744400,32.177744384765624,-2.314500331878662,-0.5362475514411926,0.5903838872909546
1710958245878077400,32.211077392578126,-1.459161400794983,-0.17271706461906433,-0.5190674662590027
1710958245911410400,32.24441040039063,-0.9126821756362915,0.10300412029027939,-0.8168554902076721
1710958245944743400,32.27774340820312,0.6925480961799622,-0.3665083646774292,-0.40140300989151
1710958245978076400,32.311076416015624,3.3286595344543457,-0.14370182156562805,-0.4113292694091797
1710958246011409400,32.344409423828125,5.147304534912109,0.1524827480316162,-0.996749997138977
1710958246044742100,32.3777421875,4.344345569610596,0.16492876410484314,-1.789476990699768
1710958246078075100,32.4110751953125,3.8152756690979004,-0.2569376230239868,-2.18133544921875
1710958246111408000,32.444408203125,3.7599940299987793,-0.13797512650489807,-2.0616095066070557
1710958246144741000,32.4777412109375,3.972339630126953,0.11835165321826935,-1.095020055770874
1710958246178074000,32.51107421875,5.329260349273682,-0.2050156146287918,0.3196258246898651
1710958246211407000,32.544406982421876,6.457495212554932,-0.6449783444404602,0.584199070930481
1710958246244740000,32.57773999023438,5.7784624099731445,-0.5281538367271423,-0.08498412370681763
1710958246278073000,32.61107299804687,3.8192460536956787,0.7889092564582825,0.2337254285812378
1710958246311406000,32.64440600585937,2.4746949672698975,0.8803836107254028,0.39834877848625183
1710958246344739000,32.677739013671875,1.8839292526245117,-0.44935452938079834,-0.06543701142072678
1710958246378072000,32.71107202148438,-0.6760551929473877,-0.8012788891792297,0.6483380198478699
1710958246411404800,32.74440478515625,-2.3697056770324707,0.3727695345878601,-1.0180532932281494
1710958246444737800,32.77773779296875,-3.6817290782928467,1.1863417625427246,-2.3445844650268555
1710958246478070800,32.81107080078125,-4.461093902587891,1.1935192346572876,-1.2231452465057373
1710958246511403800,32.84440380859375,-4.4465861320495605,-0.26640576124191284,0.8143357634544373
1710958246544736800,32.87773681640625,-5.26657247543335,-0.8561024069786072,1.7811542749404907
1710958246578069800,32.91106982421875,-5.035366535186768,0.3094705045223236,1.4718364477157593
1710958246611402800,32.94440283203125,-4.7552170753479,1.1167051792144775,2.571666955947876
1710958246644735700,32.97773583984375,-4.4967522621154785,0.2041756957769394,3.2227537631988525
1710958246678068700,33.01106884765625,-3.2613134384155273,-1.2295591831207275,2.472862482070923
1710958246711401700,33.04440161132813,-1.8113148212432861,-0.9888089895248413,0.610236406326294
1710958246744734700,33.07773461914063,-1.653487205505371,0.20997874438762665,-1.2660572528839111
1710958246778067500,33.1110673828125,-1.0620343685150146,-0.09987352788448334,-1.515970230102539
1710958246811400400,33.144400390625,1.6355435848236084,-0.49142661690711975,-0.2585411071777344
1710958246844733400,33.1777333984375,4.019680500030518,-0.013285927474498749,0.41675055027008057
1710958246878066400,33.21106640625,5.06071662902832,0.2864873707294464,-0.668419599533081
1710958246911399400,33.2443994140625,5.7001214027404785,0.36543938517570496,-2.0283946990966797
1710958246944732400,33.277732421875,6.244767665863037,0.5235724449157715,-2.215237617492676
1710958246978065400,33.3110654296875,6.950907230377197,-0.26724568009376526,-1.177560806274414
1710958247011398400,33.3443984375,7.456459999084473,-0.5306735634803772,0.883895993232727
1710958247044731400,33.3777314453125,6.746044635772705,-0.7405759692192078,3.258488416671753
1710958247078064400,33.411064453125,4.710472106933594,-1.036913275718689,3.4581589698791504
1710958247111397400,33.4443974609375,3.4402918815612793,0.550373375415802,1.7444270849227905
1710958247144730000,33.477730224609374,2.57922625541687,2.7062060832977295,0.9247463941574097
1710958247178063000,33.51106298828125,2.126053810119629,2.0633656978607178,0.8075400590896606
1710958247211396000,33.54439599609375,2.210503578186035,0.40033403038978577,1.1628241539001465
1710958247244729000,33.57772900390625,0.8929823637008667,-0.3381039500236511,0.6249731183052063
1710958247278062000,33.61106201171875,-0.9888853430747986,-0.08880192041397095,-1.2427687644958496
1710958247311395000,33.64439501953125,-2.4667539596557617,-0.48127129673957825,-2.2839579582214355
1710958247344728000,33.67772802734375,-3.6599676609039307,-0.955212414264679,-2.4719462394714355
1710958247378061000,33.71106103515625,-4.954734802246094,-1.2429214715957642,-2.2809035778045654
1710958247411394000,33.74439404296875,-6.775059700012207,-0.454546719789505,-2.174921751022339
1710958247444727000,33.77772705078125,-7.805788040161133,0.4076641798019409,-0.9997279047966003
1710958247478060000,33.81106005859375,-7.6310858726501465,0.36047622561454773,0.8712972402572632
1710958247511392800,33.844392822265625,-6.6971001625061035,-0.37437301874160767,1.803297519683838
1710958247544725800,33.87772583007813,-5.279552936553955,-0.7310314774513245,1.5194061994552612
1710958247578058800,33.91105883789062,-4.012808322906494,-0.24907296895980835,1.21482253074646
1710958247611391700,33.94439184570312,-3.0156002044677734,-0.17920731008052826,1.1750410795211792
1710958247644724700,33.977724853515625,-3.0285043716430664,-0.3175642192363739,1.01706063747406
1710958247678057700,34.0110576171875,-2.4490394592285156,0.12453648447990417,0.06070294603705406
1710958247711390700,34.044390625,-0.43889376521110535,0.02176143415272236,-0.12759071588516235
1710958247744723700,34.0777236328125,2.017857551574707,-0.20661908388137817,0.47684264183044434
1710958247778056700,34.111056640625,3.4098258018493652,-0.153704434633255,0.555565595626831
1710958247811389700,34.1443896484375,4.109398365020752,-0.3270323574542999,-0.022601349279284477
1710958247844722700,34.17772265625,5.0233025550842285,-0.03229855000972748,-1.1641221046447754
1710958247878055400,34.21105541992188,4.96809720993042,0.8137248754501343,-2.175990581512451
1710958247911388400,34.24438842773438,3.9020159244537354,1.1034955978393555,-2.387878179550171
1710958247944721400,34.27772143554687,4.082292079925537,1.411973476409912,-1.8350615501403809
1710958247978054400,34.311054443359374,3.203206777572632,1.24681556224823,0.1289651244878769
1710958248011387400,34.344387451171876,2.02671480178833,0.6058841347694397,2.0160250663757324
1710958248044720400,34.37772045898438,0.025121092796325684,0.6158867478370667,0.9232192635536194
1710958248078053400,34.41105346679687,-1.6764702796936035,0.8230403065681458,-0.7809682488441467
1710958248111386400,34.444386474609374,-2.4804980754852295,0.4306473135948181,-1.3646327257156372
1710958248144719400,34.47771923828125,-3.8591039180755615,0.5636593103408813,-1.4341930150985718
1710958248178052400,34.51105224609375,-4.501791477203369,0.28877803683280945,-0.36551573872566223
1710958248211385300,34.54438525390625,-3.8694119453430176,0.016340164467692375,2.239900588989258
1710958248244718000,34.57771801757813,-4.1652913093566895,-0.0916270911693573,2.926492929458618
1710958248278051000,34.61105102539062,-4.494996070861816,-0.12583453953266144,2.4195659160614014
1710958248311384000,34.644384033203124,-4.517597198486328,-0.24792763590812683,1.8849983215332031
1710958248344717000,34.677717041015626,-4.038005828857422,0.08223531395196915,1.2258176803588867
1710958248378050000,34.71105004882813,-3.362637758255005,0.4148416519165039,0.982700526714325
1710958248411383000,34.74438305664062,-2.264181613922119,-0.21471281349658966,1.0051491260528564
1710958248444716000,34.777716064453124,-0.034665580838918686,-0.48669254779815674,0.6274164915084839
1710958248478049000,34.811049072265625,1.2818629741668701,0.11766445636749268,-0.12720894813537598
1710958248511382000,34.84438208007813,1.0999068021774292,0.38452833890914917,-0.5090648531913757
1710958248544715000,34.87771508789063,1.4549617767333984,-0.13003410398960114,-0.2689255177974701
1710958248578048000,34.91104809570312,2.626796007156372,-0.4710395932197571,-0.338791161775589
1710958248611380700,34.94438061523437,3.6541645526885986,-0.153704434633255,-1.4670259952545166
1710958248644713700,34.977713623046874,3.9567630290985107,0.13033953309059143,-1.9191293716430664
1710958248678046700,35.011046630859376,4.390617370605469,0.24365170300006866,-1.7163281440734863
1710958248711379700,35.04437963867188,4.903805255889893,0.054899897426366806,-1.2900331020355225
1710958248744712700,35.07771264648437,6.208345890045166,-0.08086090534925461,-0.43889376521110535
1710958248778045700,35.11104565429687,6.806289196014404,0.5193728804588318,0.33680590987205505
1710958248811378700,35.144378662109375,5.309637069702148,0.995910108089447,1.8623969554901123
1710958248844711700,35.17771166992188,3.851621150970459,0.9368106126785278,1.8407882452011108
1710958248878044700,35.21104467773438,2.3692474365234375,1.3716574907302856,0.4152234196662903
1710958248911377700,35.24437768554687,0.38880428671836853,1.6086663007736206,-0.022066857665777206
1710958248944710700,35.277710693359374,-1.1057862043380737,0.6732300519943237,-0.5491516590118408
1710958248978043400,35.31104345703125,-2.4320120811462402,-0.5163949728012085,-1.485504150390625
1710958249011376400,35.34437646484375,-3.2913978099823,-1.0567657947540283,-2.5417354106903076
1710958249044709400,35.37770947265625,-4.188198089599609,-0.6603258848190308,-2.6945998668670654
1710958249078042400,35.41104248046875,-4.184762001037598,-0.023899398744106293,-1.3182847499847412
1710958249111375400,35.44437524414062,-4.222939968109131,-0.9363524913787842,1.505509376525879
1710958249144708400,35.477708251953125,-5.597651481628418,-0.32428354024887085,4.10535192489624
1710958249178041300,35.511041259765626,-5.754715442657471,-0.060244809836149216,3.6948623657226562
1710958249211374300,35.54437426757813,-4.787362575531006,-0.22349373996257782,2.4684338569641113
1710958249244707300,35.57770727539062,-4.144904136657715,0.10957072675228119,1.6411938667297363
1710958249278040300,35.611040283203124,-2.961158514022827,0.001374406274408102,0.9476531744003296
1710958249311373300,35.644373291015626,-0.5773270130157471,-0.35268792510032654,-0.1957765519618988
1710958249344706000,35.6777060546875,1.0149227380752563,-0.2313583940267563,-0.6368082761764526
1710958249378039000,35.7110390625,1.4890165328979492,-0.16691401600837708,-0.45111069083213806
1710958249411372000,35.7443720703125,1.8897323608398438,-0.3736094534397125,-0.6533774733543396
1710958249444705000,35.777705078125,2.454002618789673,-0.27625566720962524,-1.2384164333343506
1710958249478038000,35.8110380859375,3.0801210403442383,-0.1328592747449875,-1.8300219774246216
1710958249511371000,35.84437109375,3.7130351066589355,-0.1853157877922058,-2.484926700592041
1710958249544704000,35.8777041015625,4.861504077911377,-0.38002336025238037,-3.238330364227295
1710958249578037000,35.911037109375,5.453796863555908,0.33031564950942993,-3.6731009483337402
1710958249611370000,35.944369873046874,4.379164218902588,1.3282109498977661,-2.578080892562866
1710958249644703000,35.977702880859376,3.103180408477783,-0.40369367599487305,0.6869741082191467
1710958249678036000,36.01103588867188,2.9058003425598145,-1.391510009765625,2.4308667182922363
1710958249711368700,36.04436865234375,2.801116466522217,-0.636350154876709,0.5295282006263733
1710958249744701700,36.07770166015625,3.064162492752075,0.24540787935256958,-1.5423892736434937
1710958249778034700,36.11103466796875,2.5374596118927,0.5741963982582092,-1.8275022506713867
1710958249811367700,36.14436767578125,0.5318952798843384,0.3533751368522644,-2.2673885822296143
1710958249844700700,36.17770068359375,-1.0592855215072632,0.5783196687698364,-1.4816863536834717
1710958249878033700,36.21103369140625,-0.9671239256858826,1.5985872745513916,-0.25777754187583923
1710958249911366700,36.24436669921875,-1.8985133171081543,1.12082839012146,1.0367605686187744
1710958249944699600,36.27769970703125,-2.783478260040283,0.2820587158203125,2.179426670074463
1710958249978032600,36.31103271484375,-3.7011234760284424,-0.7280535697937012,3.476789951324463
1710958250011365600,36.34436572265625,-5.077973365783691,-1.8998113870620728,3.4542648792266846
1710958250044698600,36.37769873046875,-6.167953968048096,-0.7384379506111145,1.0240854024887085
1710958250078031400,36.41103125,-6.438253879547119,1.579803705215454,-0.24166645109653473
1710958250111364400,36.4443642578125,-5.64354133605957,1.3424131870269775,0.9248991012573242
1710958250144697300,36.477697265625,-4.576314926147461,0.28396761417388916,2.333894729614258
1710958250178030300,36.5110302734375,-3.369586229324341,-0.1238492801785469,2.785768985748291
1710958250211363300,36.54436328125,-0.9854493141174316,-0.5325824618339539,2.0532867908477783
1710958250244696300,36.5776962890625,-0.17477867007255554,-0.38941511511802673,0.6445965766906738
1710958250278029300,36.611029296875,0.6009973287582397,0.548082709312439,-1.064706802368164
1710958250311362300,36.6443623046875,2.209739923477173,0.6037461757659912,-1.4411413669586182
1710958250344695300,36.6776953125,3.1993889808654785,-0.22677704691886902,-0.7773795127868652
1710958250378028300,36.7110283203125,3.078517436981201,-1.054704189300537,-0.30878329277038574
1710958250411361300,36.744361328125,3.2638332843780518,-1.18046236038208,-0.5594597458839417
1710958250444694000,36.777694091796874,3.5616211891174316,-0.3167243003845215,-1.1576318740844727
1710958250478027000,36.811027099609376,4.113140106201172,1.5013861656188965,-2.7939391136169434
1710958250511360000,36.84436010742188,6.367471694946289,0.6745280623435974,-2.1870622634887695
1710958250544693000,36.87769287109375,6.636321067810059,-1.4325895309448242,0.32939937710762024
1710958250578026000,36.91102587890625,5.426690578460693,-1.1324344873428345,0.5102865099906921
1710958250611359000,36.94435888671875,5.212588787078857,0.13140851259231567,-0.6061131954193115
1710958250644692000,36.97769189453125,4.11375093460083,1.1292275190353394,-0.11957334727048874
1710958250678025000,37.01102490234375,1.1373976469039917,1.1074661016464233,2.5205085277557373
1710958250711358000,37.04435791015625,0.5588488578796387,0.6403206586837769,3.284754753112793
1710958250744691000,37.07769091796875,0.7702020406723022,0.021990500390529633,2.2079837322235107
1710958250778024000,37.11102392578125,-0.512882649898529,-0.6268056631088257,0.4343124032020569
1710958250811356700,37.144356689453126,-2.144761085510254,-0.8636616468429565,-1.2581926584243774
1710958250844689700,37.17768969726563,-3.3004841804504395,-0.8796200752258301,-1.9041635990142822
1710958250878022700,37.21102270507812,-4.711999416351318,-0.9356653094291687,-1.0662338733673096
1710958250911355600,37.24435571289062,-5.917582988739014,-0.22547899186611176,-0.1426328420639038
1710958250944688600,37.277688720703125,-6.370907783508301,-0.029473381116986275,0.20257222652435303
1710958250978021600,37.31102172851563,-6.331737041473389,-0.40789327025413513,0.4133145213127136
1710958251011354600,37.34435473632813,-6.027535438537598,-0.16515782475471497,1.7112122774124146
1710958251044687600,37.3776875,-4.612431526184082,-0.833730161190033,2.225545644760132
1710958251078020600,37.4110205078125,-1.8374285697937012,-0.7230141162872314,0.6345176100730896
1710958251111353600,37.444353515625,-0.18607935309410095,0.9845330715179443,-0.8992435336112976
1710958251144686600,37.4776865234375,0.4004867374897003,0.6038988828659058,-1.0484429597854614
1710958251178019300,37.51101928710938,1.4686294794082642,-0.49585527181625366,-0.42423340678215027
1710958251211352300,37.54435229492187,2.7445366382598877,-0.20913882553577423,-0.08452598750591278
1710958251244685300,37.57768530273437,3.406771421432495,0.28457847237586975,-0.24617144465446472
1710958251278018300,37.611018310546875,3.7367053031921387,0.10918894410133362,-0.6752916574478149
1710958251311351300,37.64435131835938,4.799350738525391,-0.11575555801391602,-1.3776133060455322
1710958251344684300,37.67768432617188,5.015208721160889,-0.18600298464298248,-1.9734184741973877
1710958251378017300,37.71101733398437,4.35831880569458,-0.07834116369485855,-2.496380090713501
1710958251411350300,37.744350341796874,4.395657062530518,-0.8086090683937073,-1.7684028148651123
1710958251444683300,37.777683349609376,3.985243797302246,-1.5019971132278442,0.11186140775680542
1710958251478016300,37.81101635742188,3.348588228225708,-0.9169580936431885,0.13270656764507294
1710958251511349200,37.84434936523437,2.815242290496826,0.23769593238830566,-0.8370898365974426
1710958251544682000,37.87768188476562,2.0197665691375732,0.9333745837211609,-1.3476054668426514
1710958251578015000,37.91101489257812,0.9588011503219604,1.8117729425430298,-1.6890690326690674
1710958251611348000,37.944347900390625,0.24785128235816956,1.624548316001892,-2.4161300659179688
1710958251644681000,37.977680908203126,-1.5529264211654663,0.33588963747024536,-0.9096279144287109
1710958251678014000,38.01101391601563,-2.135216474533081,1.4931397438049316,1.1890904903411865
1710958251711347000,38.04434692382812,-2.7553791999816895,1.0260707139968872,0.8196043372154236
1710958251744680000,38.077679931640624,-3.882697820663452,1.6131712198257446,1.1172395944595337
1710958251778013000,38.111012939453126,-4.658015727996826,1.751680850982666,2.4854612350463867
1710958251811346000,38.14434594726563,-5.3115458488464355,0.7531746625900269,3.52351975440979
1710958251844679000,38.17767895507812,-5.167691230773926,0.3679591119289398,3.1521246433258057
1710958251878012000,38.21101196289062,-4.347934246063232,0.329781174659729,2.8073012828826904
1710958251911344600,38.2443447265625,-4.167047500610352,-0.42072105407714844,2.9857449531555176
1710958251944677600,38.277677734375,-4.154295921325684,-0.5885513424873352,2.8080649375915527
1710958251978010600,38.3110107421875,-3.872924327850342,-0.2423536479473114,2.1320860385894775
1710958252011343600,38.34434350585938,-2.7082676887512207,-0.4145362079143524,1.5872102975845337
1710958252044676600,38.37767651367187,-1.7670284509658813,-0.3626142144203186,1.10364830493927
1710958252078009600,38.411009521484374,-1.0258415937423706,0.17233528196811676,0.5445703268051147
1710958252111342600,38.444342529296875,0.11308310180902481,0.2733541429042816,0.010155336000025272
1710958252144675600,38.47767553710938,1.6196614503860474,0.08101361989974976,-0.5761052966117859
1710958252178008600,38.51100854492187,2.9167191982269287,-0.0022143214009702206,-0.9958337545394897
1710958252211341600,38.54434155273437,3.5015292167663574,0.3106921911239624,-1.228032112121582
1710958252244674600,38.577674560546875,3.9205703735351562,0.4156815707683563,-1.4532055854797363
1710958252278007300,38.61100732421875,4.5602803230285645,0.22822780907154083,-1.4583978652954102
1710958252311340300,38.64434033203125,4.505227565765381,-0.06131379306316376,-1.315077781677246
1710958252344673300,38.67767333984375,4.74674129486084,-0.08047912269830704,-1.3078240156173706
1710958252378006300,38.71100634765625,5.107675552368164,-0.41018393635749817,-0.9908705949783325
1710958252411339300,38.74433935546875,4.85554838180542,-0.9468895792961121,-0.1960819661617279
1710958252444672300,38.77767236328125,4.406346797943115,-0.49707695841789246,-0.19944162666797638
1710958252478005200,38.81100512695313,3.7165474891662598,0.3649812340736389,-0.9449806809425354
1710958252511338200,38.84433813476563,2.7436203956604004,1.0888352394104004,-0.996444582939148
1710958252544671200,38.87767114257812,1.8329235315322876,0.9531508088111877,-0.3387148082256317
1710958252578004200,38.911004150390625,1.3814311027526855,0.5196782946586609,0.18439951539039612
1710958252611337200,38.944337158203126,1.1381611824035645,0.1951656937599182,-0.0130568603053689
1710958252644670000,38.977669921875,0.6410078406333923,0.034818295389413834,-0.2951919436454773
1710958252678003000,39.0110029296875,0.07666133344173431,-0.03825430944561958,-0.6325323581695557
1710958252711336000,39.0443359375,-0.5840463638305664,-0.12606360018253326,-0.9395594596862793
1710958252744669000,39.0776689453125,-1.4847406148910522,-0.1546207070350647,-1.1896250247955322
1710958252778002000,39.111001953125,-2.3563432693481445,0.15286453068256378,-1.2158914804458618
1710958252811335000,39.1443349609375,-3.0798919200897217,0.49356457591056824,-0.6832326650619507
1710958252844668000,39.17766796875,-3.5835354328155518,0.5200600624084473,0.2432699203491211
1710958252878001000,39.2110009765625,-3.9335508346557617,0.36612656712532043,1.2648355960845947
1710958252911334000,39.244333984375,-4.291125774383545,0.2982461750507355,2.0039608478546143
1710958252944667000,39.2776669921875,-4.529890537261963,0.11865708231925964,2.209587335586548
1710958252978000000,39.31099975585938,-4.148187160491943,-0.38872793316841125,1.9272230863571167
1710958253011332600,39.34433251953125,-3.6172847747802734,-0.5429668426513672,1.6163018941879272
1710958253044665600,39.37766552734375,-3.3802759647369385,-0.3988068997859955,0.9732323884963989
1710958253077998600,39.41099853515625,-3.2593283653259277,-0.34573954343795776,1.0840247869491577
1710958253111331600,39.44433154296875,-3.00437593460083,-0.49470990896224976,1.9373784065246582
1710958253144664600,39.47766455078125,-2.3000690937042236,-0.5658736228942871,2.397881031036377
1710958253177997600,39.51099755859375,-1.8719414472579956,-0.08261708915233612,2.22615647315979
1710958253211330600,39.54433056640625,-1.4356437921524048,0.1388150453567505,1.3660072088241577
1710958253244663600,39.57766357421875,-0.5216635465621948,0.13598987460136414,0.4818057715892792
1710958253277996500,39.61099658203125,0.4252260625362396,0.10078980028629303,-0.15798036754131317
1710958253311329500,39.64432958984375,1.1422079801559448,0.3722350597381592,-0.6615476012229919
1710958253344662500,39.67766259765625,1.8350615501403809,0.7852441668510437,-0.882979691028595
1710958253377995300,39.71099536132812,2.5057718753814697,0.7120952010154724,-0.834570050239563
1710958253411328300,39.744328369140625,3.039881467819214,0.5454866290092468,-0.9229138493537903
1710958253444661200,39.7776611328125,3.3535513877868652,0.7569161057472229,-1.1127346754074097
1710958253477994200,39.810994140625,3.3232381343841553,1.0143119096755981,-1.2851462364196777
1710958253511327200,39.8443271484375,3.306821584701538,0.8831323981285095,-1.8280367851257324
1710958253544660200,39.87766015625,3.8187880516052246,0.8449544906616211,-2.399942636489868
1710958253577993200,39.9109931640625,4.150477886199951,0.743477463722229,-2.5235626697540283
1710958253611326200,39.944326171875,4.011052131652832,0.3259633779525757,-2.033052444458008
1710958253644659200,39.9776591796875,3.50465989112854,-0.06314633786678314,-1.1287693977355957
1710958253677992200,40.0109921875,2.8835809230804443,-0.2763320207595825,-0.47707170248031616
1710958253711325200,40.0443251953125,2.3965065479278564,-0.11995512992143631,-0.31710609793663025
1710958253744658000,40.077657958984375,1.8916412591934204,0.016874656081199646,-0.3554367423057556
1710958253777991000,40.11099096679688,1.5822471380233765,0.06055023521184921,-0.4437805414199829
1710958253811324000,40.14432397460938,1.424801230430603,0.1336991935968399,-0.4703523814678192
1710958253844657000,40.17765698242187,1.1467894315719604,-0.072843536734581,-0.4885250926017761
1710958253877990000,40.210989990234374,0.4002576768398285,-0.29595550894737244,-0.5692332983016968
1710958253911323000,40.244322998046876,-0.726908266544342,-0.24823305010795593,-0.7151494026184082
1710958253944656000,40.27765576171875,-1.7480921745300293,-0.0035123717971146107,-0.9730033278465271
1710958253977988900,40.31098876953125,-2.5517380237579346,0.42308807373046875,-1.0540169477462769
1710958254011321900,40.34432177734375,-3.2381012439727783,0.7583668828010559,-0.47081053256988525
1710958254044654800,40.37765478515625,-3.7954230308532715,0.5948125123977661,0.6657471656799316
1710958254077987800,40.41098779296875,-4.129251003265381,0.11125055700540543,1.899200439453125
1710958254111320600,40.444320556640626,-4.152005195617676,-0.422324538230896,2.7503397464752197
1710958254144653600,40.47765356445313,-4.153303146362305,-0.9141329526901245,2.832345962524414
1710958254177986600,40.51098657226562,-4.38328742980957,-1.0688300132751465,2.3184707164764404
1710958254211319600,40.544319580078124,-4.332281589508057,-0.5175403356552124,1.4803882837295532
1710958254244652500,40.577652587890626,-3.838869571685791,0.008857285603880882,1.0480611324310303
1710958254277985500,40.61098559570313,-3.284449338912964,-0.8260945677757263,1.7884844541549683
1710958254311318500,40.64431860351562,-2.813638925552368,-1.3289746046066284,2.917330265045166
1710958254344651500,40.67765161132812,-1.3124053478240967,-1.024314522743225,2.28342342376709
1710958254377984500,40.710984619140625,0.27358320355415344,-0.8816816806793213,1.7651195526123047
1710958254411317500,40.7443173828125,-0.09093988686800003,-0.34757208824157715,1.1458730697631836
1710958254444650500,40.777650390625,-0.30725616216659546,0.2724378705024719,0.21051323413848877
1710958254477983200,40.81098315429688,0.504788875579834,1.1581664085388184,-0.5969504714012146
1710958254511316200,40.84431616210937,1.2854516506195068,1.4299933910369873,-0.779593825340271
1710958254544649200,40.877649169921874,1.7203749418258667,1.6898325681686401,-1.097616195678711
1710958254577982200,40.910982177734375,2.3447372913360596,2.587778091430664,-2.126206636428833
1710958254611315200,40.94431518554688,2.944894552230835,2.7020065784454346,-2.76011323928833
1710958254644648200,40.97764819335937,3.6026244163513184,1.434574842453003,-2.649244546890259
1710958254677981200,41.01098120117187,3.650423288345337,0.029855160042643547,-1.8145217895507812
1710958254711314200,41.044314208984375,3.2829222679138184,-0.6541410684585571,-0.47470468282699585
1710958254744647200,41.077647216796876,3.581092119216919,-0.6384117603302002,0.18516308069229126
1710958254777980200,41.11098022460938,4.244014263153076,-0.08933641016483307,0.17554223537445068
1710958254811313200,41.14431323242187,3.8570423126220703,0.18409408628940582,-0.13156123459339142
1710958254844646000,41.17764599609375,3.2797152996063232,0.4276694357395172,-0.17355698347091675
1710958254877979000,41.210978759765624,2.901524543762207,1.0355387926101685,-0.48547086119651794
1710958254911312000,41.244311767578125,2.362222671508789,1.4973393678665161,-1.3489798307418823
1710958254944644900,41.27764477539063,1.778939962387085,1.6468442678451538,-1.9214963912963867
1710958254977977900,41.31097778320313,1.4977974891662598,1.6029396057128906,-2.0917701721191406
1710958255011310800,41.34431079101562,1.3579134941101074,1.1894723176956177,-1.8568229675292969
1710958255044643800,41.377643798828124,0.9650623202323914,0.6642963886260986,-1.4309097528457642
1710958255077976800,41.410976806640626,0.5458683967590332,0.3172588050365448,-0.9278770089149475
1710958255111309800,41.44430981445313,0.120871402323246,0.07375980913639069,-0.574120044708252
1710958255144642800,41.47764282226562,-0.5451048016548157,-0.03352024406194687,-0.22242476046085358
1710958255177975800,41.510975830078124,-1.4155621528625488,-0.045355409383773804,0.17057909071445465
1710958255211308500,41.54430859375,-2.1480443477630615,0.04214845970273018,0.6040515899658203
1710958255244641500,41.5776416015625,-2.79852032661438,0.02351761981844902,1.196191668510437
1710958255277974500,41.610974609375,-3.3265979290008545,-0.31924405694007874,1.7206040620803833
1710958255311307500,41.6443076171875,-3.5607049465179443,-0.6045860648155212,2.0901665687561035
1710958255344640500,41.677640625,-3.7596120834350586,-0.8111287951469421,2.091693639755249
1710958255377973500,41.710973388671874,-4.137803077697754,-0.7562289237976074,1.543076515197754
1710958255411306500,41.744306396484376,-4.297768592834473,-0.4133145213127136,0.9862129092216492
1710958255444639500,41.77763940429688,-4.089469909667969,-0.13263021409511566,0.8625926971435547
1710958255477972500,41.81097241210937,-3.675238847732544,-0.25090551376342773,0.8797727823257446
1710958255511305500,41.844305419921874,-3.2016031742095947,-0.4154524803161621,1.1532032489776611
1710958255544638500,41.877638427734375,-2.6625304222106934,-0.6148941516876221,1.222305417060852
1710958255577971200,41.91097119140625,-2.1504876613616943,-0.536629319190979,1.0014077425003052
1710958255611304200,41.94430419921875,-1.7193822860717773,-0.09155073016881943,0.6128324866294861
