time,seconds_elapsed,z,y,x
1710737800441090600,0.297090576171875,0,0,0
1710737800498974700,0.354974609375,0.1986837387084961,0.781951904296875,-0.3527318835258484
1710737800556859100,0.412859130859375,0.5689935684204102,-0.5128068923950195,-0.04765099287033081
1710737800614743600,0.47074365234375,1.105879783630371,-0.5583227872848511,-1.0354427099227905
1710737800672627700,0.528627685546875,0.4812917709350586,-2.4112157821655273,-1.2893069982528687
1710737800730512100,0.58651220703125,-5.611138343811035,-0.8372198343276978,-0.1273581087589264
1710737800788396500,0.644396484375,-2.4652810096740723,-1.8236536979675293,-0.9250082969665527
1710737800846281000,0.702281005859375,-5.769606113433838,0.4127430319786072,-0.7279647588729858
1710737800904165400,0.760165283203125,-1.1062421798706055,-1.0196449756622314,-2.2311408519744873
1710737800962049500,0.818049560546875,-4.293455600738525,-3.9027960300445557,-2.3482882976531982
1710737801019934000,0.875933837890625,2.8402745723724365,-5.303474426269531,9.59178638458252
1710737801077818400,0.933818359375,6.739096641540527,-5.949846267700195,9.765373229980469
1710737801135702800,0.991702880859375,3.2058441638946533,-4.78066873550415,7.237255573272705
1710737801193587200,1.049587158203125,3.6505424976348877,-1.012606143951416,8.83420181274414
1710737801251471600,1.1074716796875,0.9804298877716064,2.659421443939209,8.87678337097168
1710737801309356000,1.16535595703125,-1.2203961610794067,4.963990211486816,5.6136698722839355
1710737801367240400,1.223240478515625,-1.8219115734100342,5.311659812927246,1.6631736755371094
1710737801425124900,1.281124755859375,-1.3293935060501099,4.925402641296387,-0.4323921203613281
1710737801483009500,1.339009521484375,-0.7536885738372803,3.6232025623321533,0.04062080383300781
1710737801540894000,1.39689404296875,-1.2506240606307983,0.9880003929138184,1.7092180252075195
1710737801598778400,1.4547783203125,-1.102030634880066,-1.4895477294921875,3.798163890838623
1710737801656662800,1.512662841796875,0.8897945880889893,-3.5469484329223633,5.244397163391113
1710737801714547200,1.570547119140625,-0.09160661697387695,-4.6562910079956055,3.0568618774414062
1710737801772432000,1.628431884765625,-0.678858757019043,-3.3484416007995605,-1.6815075874328613
1710737801830316300,1.68631640625,-1.4139254093170166,-4.252479553222656,-0.3591647148132324
1710737801888200700,1.74420068359375,1.650498867034912,-2.7237184047698975,-1.1345648765563965
1710737801946085000,1.802085205078125,-0.7006988525390625,-1.1421778202056885,-3.6801018714904785
1710737802003969800,1.8599697265625,-2.1521873474121094,0.48236751556396484,-4.992225646972656
1710737802061854200,1.917854248046875,-2.3587515354156494,-0.5518078804016113,-3.1856741905212402
1710737802119738600,1.975738525390625,-0.2174239158630371,-0.892056941986084,-0.8995747566223145
1710737802177623300,2.033623291015625,0.6035628318786621,-1.800160527229309,3.271725654602051
1710737802235507700,2.0915078125,0.969912052154541,-1.5207431316375732,2.6208643913269043
1710737802293392400,2.149392333984375,1.0052919387817383,-0.9306461811065674,2.2478299140930176
1710737802351276800,2.20727685546875,-0.7450876235961914,-2.067196846008301,1.6102080345153809
1710737802409161500,2.265161376953125,-2.1983330249786377,-0.8005247116088867,-2.337822437286377
1710737802467046000,2.3230458984375,-1.8469579219818115,-0.20455408096313477,-3.6282248497009277
1710737802524930600,2.3809306640625,-3.5094316005706787,1.016173243522644,-4.711478233337402
1710737802582815000,2.43881494140625,-0.2634143829345703,1.0800284147262573,-1.485307216644287
1710737802640699600,2.49669970703125,0.6424283981323242,0.33704400062561035,2.001852035522461
1710737802698584000,2.554583984375,0.16947603225708008,-0.7640411853790283,2.5074844360351562
1710737802756468700,2.61246875,2.8462717533111572,-2.4004998207092285,5.344826698303223
1710737802814353200,2.670353271484375,3.4258902072906494,0.412992000579834,3.137237548828125
1710737802872237800,2.72823779296875,2.641852378845215,-1.284834861755371,3.757105827331543
1710737802930122500,2.78612255859375,-2.327327013015747,1.6759207248687744,0.6908302307128906
1710737802988007000,2.8440068359375,-1.1132490634918213,3.507992744445801,-2.6822495460510254
1710737803045891600,2.9018916015625,0.5381608009338379,2.668423652648926,-3.60894775390625
1710737803103776300,2.9597763671875,-0.3168231248855591,-0.31068921089172363,-2.9911818504333496
1710737803161660700,3.01766064453125,-0.29697561264038086,-2.4825363159179688,-1.1813430786132812
1710737803219545300,3.07554541015625,1.118721842765808,-4.401022911071777,1.0071430206298828
1710737803277430000,3.133429931640625,0.5050612688064575,-5.220358848571777,1.3218374252319336
1710737803335314700,3.191314697265625,0.31192266941070557,-1.5180892944335938,-1.4547629356384277
1710737803393199000,3.24919921875,-0.10457611083984375,-2.9906530380249023,1.955780029296875
1710737803451083800,3.307083740234375,-1.6943776607513428,-0.3097105026245117,-1.7472968101501465
1710737803508968400,3.364968505859375,-1.802255392074585,2.454883337020874,-5.029665946960449
1710737803566853000,3.42285302734375,-1.310908555984497,3.5666093826293945,-4.18074893951416
1710737803624737800,3.48073779296875,-0.6912728548049927,1.8847897052764893,-1.5501465797424316
1710737803682622200,3.538622314453125,0.20511984825134277,-0.22009944915771484,2.5518407821655273
1710737803740507000,3.5965068359375,0.6289834976196289,-1.2661209106445312,5.621370792388916
1710737803798391600,3.6543916015625,0.4482247829437256,-2.3245043754577637,7.427117347717285
1710737803856276200,3.712276123046875,0.8225855827331543,1.1337041854858398,4.4009623527526855
1710737803914161000,3.770160888671875,0.26233530044555664,-0.5730676651000977,5.102073669433594
1710737803972045600,3.828045654296875,1.0181318521499634,-0.7816238403320312,1.3782830238342285
1710737804029930200,3.88593017578125,2.661332130432129,1.0602068901062012,-2.179625988006592
1710737804087814700,3.943814697265625,1.4621250629425049,0.6614651679992676,-4.357844829559326
1710737804145699600,4.001699462890625,-0.19949126243591309,-1.3388800621032715,-5.562823295593262
1710737804203584000,4.059583984375,-0.018212616443634033,-3.6662399768829346,-5.10405969619751
1710737804261468700,4.11746875,-0.08867854624986649,-4.99217414855957,-1.7739825248718262
1710737804319353300,4.175353271484375,0.1113804280757904,-5.309528350830078,-1.9191880226135254
1710737804377238000,4.233238037109375,0.04997628927230835,-4.935930252075195,-0.7558703422546387
1710737804435122700,4.291122802734375,-0.4347495436668396,-1.079366683959961,2.568112373352051
1710737804493007400,4.34900732421875,-1.0781117677688599,-1.0187854766845703,3.709831714630127
1710737804550892000,4.40689208984375,0.583948016166687,2.807586431503296,-0.3154125213623047
1710737804608776700,4.464776611328125,1.1440070867538452,4.3489670753479,-2.6583170890808105
1710737804666661400,4.522661376953125,-1.113035798072815,3.519592523574829,-4.106905937194824
1710737804724546300,4.58054638671875,-1.062886118888855,1.1237530708312988,0.6355977058410645
1710737804782431000,4.638430908203125,-0.7953616976737976,-1.443826675415039,3.9867234230041504
1710737804840315600,4.696315673828125,1.1609618663787842,-2.512960433959961,5.641441822052002
1710737804898200300,4.754200439453125,-0.07635927200317383,-0.24531269073486328,4.924755573272705
1710737804956085000,4.8120849609375,1.5612120628356934,0.24198484420776367,4.792523384094238
1710737805013969700,4.8699697265625,0.521202564239502,-0.9590396881103516,3.634225845336914
1710737805071854300,4.927854248046875,1.4053122997283936,0.9655666351318359,-0.27631473541259766
1710737805129739000,4.985739013671875,2.1572608947753906,1.038703441619873,-3.258732318878174
1710737805187623700,5.043623779296875,0.2623729705810547,-0.04385519027709961,-4.733066558837891
1710737805245508400,5.10150830078125,-1.7765337228775024,-2.362353563308716,-4.910466194152832
1710737805303393300,5.159393310546875,-1.6899105310440063,-3.7491226196289062,-3.3758721351623535
1710737805361278000,5.21727783203125,0.3846902847290039,-4.790314674377441,-1.1904120445251465
1710737805419162600,5.27516259765625,-0.1777637004852295,-5.233591079711914,-0.602867603302002
1710737805477047300,5.33304736328125,1.0730267763137817,-2.044060707092285,-1.236088752746582
1710737805534932200,5.39093212890625,2.227982759475708,-3.4481372833251953,3.5625357627868652
1710737805592817000,5.44881689453125,-0.9614837765693665,1.546414852142334,-0.8382453918457031
1710737805650701600,5.50670166015625,-0.20718622207641602,4.488597869873047,-2.343122959136963
1710737805708586200,5.564586181640625,-2.10789155960083,5.056741237640381,-2.8368842601776123
1710737805766471000,5.622470947265625,-2.184685230255127,1.9494619369506836,0.29591941833496094
1710737805824355800,5.68035595703125,-0.0851888656616211,-0.4767775535583496,5.164437770843506
1710737805882240500,5.738240478515625,2.5167064666748047,-2.497201442718506,6.542995452880859
1710737805940125200,5.796125244140625,1.9356777667999268,-1.248887538909912,5.561802864074707
1710737805998010000,5.854010009765625,1.9770231246948242,1.5483498573303223,2.5159287452697754
1710737806055894800,5.911894775390625,0.9304533004760742,-1.9050970077514648,2.047168731689453
1710737806113779500,5.969779541015625,0.6704570055007935,-0.5133695602416992,-0.5805087089538574
1710737806171664400,6.027664306640625,1.4039443731307983,0.4395921230316162,-2.9268574714660645
1710737806229549000,6.085549072265625,0.4346669912338257,0.0801539421081543,-5.231606483459473
1710737806287433700,6.143433837890625,-0.5623000860214233,-1.380807638168335,-4.460769176483154
1710737806345318700,6.201318603515625,-0.7597245573997498,-3.2037370204925537,-3.505878448486328
1710737806403203300,6.259203369140625,0.5251471996307373,-4.405527114868164,-1.139512538909912
1710737806461088000,6.317087890625,0.9889876842498779,-4.845190048217773,0.9490861892700195
1710737806518973000,6.374972900390625,0.966284990310669,-2.306013584136963,0.7834386825561523
1710737806576857600,6.432857666015625,0.6353585720062256,-0.9654350280761719,4.996838569641113
1710737806634742300,6.4907421875,-3.168120861053467,1.4416499137878418,-0.6786394119262695
1710737806692627200,6.548627197265625,-1.7519762516021729,4.0466203689575195,-1.8812894821166992
1710737806750511900,6.606511962890625,-1.3707547187805176,4.893138885498047,-1.7855253219604492
1710737806808396800,6.664396728515625,-0.978191614151001,2.7435686588287354,-0.8393936157226562
1710737806866281500,6.722281494140625,-0.38925623893737793,-0.5125241279602051,1.428286075592041
1710737806924166100,6.780166259765625,0.36515259742736816,-2.4810304641723633,3.9627513885498047
1710737806982051000,6.838051025390625,0.519324779510498,-3.7957921028137207,6.1001458168029785
1710737807039935700,6.895935791015625,0.27630090713500977,-0.10231685638427734,3.6388230323791504
1710737807097820700,6.953820556640625,0.607236385345459,-0.5335121154785156,3.509211540222168
1710737807155705300,7.011705322265625,0.5387413501739502,-0.37610912322998047,0.38480615615844727
1710737807213590300,7.06959033203125,1.4217934608459473,1.758443832397461,-2.159118175506592
1710737807271475000,7.127474853515625,-0.003586292266845703,2.1530263423919678,-3.8783605098724365
1710737807329359600,7.185359619140625,-1.5330111980438232,0.7661123275756836,-3.95878267288208
1710737807387244500,7.24324462890625,-1.817129373550415,-1.465163230895996,-3.6122374534606934
1710737807445129200,7.301129150390625,0.13931620121002197,-4.290280342102051,-1.5179901123046875
1710737807503014100,7.35901416015625,1.649017095565796,-4.61403751373291,-1.3025264739990234
1710737807560898800,7.41689892578125,1.3200581073760986,-4.411612510681152,-0.06646537780761719
1710737807618783700,7.47478369140625,1.5511640310287476,0.3481330871582031,1.4431705474853516
1710737807676668400,7.53266845703125,-0.7761927247047424,0.6166014671325684,3.8812708854675293
1710737807734553300,7.59055322265625,-0.7816994190216064,2.4946703910827637,0.623964786529541
1710737807792438000,7.64843798828125,-1.0376780033111572,3.7545344829559326,-2.432096481323242
1710737807850323000,7.706322998046875,-2.103947162628174,3.5126733779907227,-2.5322394371032715
1710737807908207600,7.76420751953125,-1.9363057613372803,0.44268083572387695,-0.750389575958252
1710737807966092500,7.822092529296875,-2.309220314025879,-1.7276134490966797,1.2796258926391602
1710737808023977200,7.879977294921875,-0.17140960693359375,-2.426445960998535,4.252824783325195
1710737808081862100,7.937862060546875,0.5508830547332764,-1.6971745491027832,4.452825546264648
1710737808139746800,7.995746826171875,1.6913824081420898,-0.28134870529174805,6.119184970855713
1710737808197631500,8.053631591796876,0.08562541007995605,-0.9816703796386719,4.316036701202393
1710737808255516400,8.111516357421875,1.3723231554031372,0.5838766098022461,0.09393882751464844
1710737808313401000,8.169401123046875,0.09723091125488281,1.6101548671722412,-3.1871938705444336
1710737808371286000,8.2272861328125,-1.2977811098098755,0.6209795475006104,-4.207777500152588
1710737808429170700,8.285170654296875,-1.738849401473999,-2.5711112022399902,-4.4363555908203125
1710737808487055600,8.3430556640625,-1.1362196207046509,-4.523585319519043,-4.5850348472595215
1710737808544940300,8.400940185546874,0.722468376159668,-5.694041728973389,-1.5915350914001465
1710737808602825200,8.4588251953125,-0.9643584489822388,-5.452360153198242,0.5471067428588867
1710737808660710000,8.5167099609375,0.2440190315246582,-1.2587971687316895,0.22588253021240234
1710737808718594800,8.5745947265625,-0.06816017627716064,-1.651280403137207,4.036344528198242
1710737808776479500,8.6324794921875,-1.9830913543701172,2.139302968978882,-0.5436654090881348
1710737808834364400,8.690364501953125,-0.7247060537338257,4.4626312255859375,-3.000032901763916
1710737808892249000,8.7482490234375,-1.113100528717041,3.9959399700164795,-3.1937363147735596
1710737808950134000,8.806134033203126,-0.1998347043991089,2.0142745971679688,-0.03945207595825195
1710737809008018700,8.864018798828125,0.0946953296661377,-0.08913230895996094,3.227299213409424
1710737809065903400,8.9219033203125,1.5594416856765747,-2.0863571166992188,5.8659539222717285
1710737809123788300,8.979788330078126,0.19583749771118164,-1.2455925941467285,6.536617755889893
1710737809181673000,9.0376728515625,0.4557933807373047,1.8984313011169434,3.616204261779785
1710737809239558000,9.095557861328125,-0.5167449712753296,-0.6372642517089844,2.811673641204834
1710737809297442600,9.153442626953124,0.0366668701171875,0.6487331390380859,0.16718244552612305
1710737809355327500,9.211327392578125,0.4510819911956787,2.4260427951812744,-2.1813902854919434
1710737809413212200,9.269212158203125,-0.8294440507888794,1.4932849407196045,-3.520390510559082
1710737809471096800,9.327096923828124,-0.6496509313583374,-2.1338300704956055,-1.79290771484375
1710737809528981800,9.384981689453125,-0.6532760262489319,-3.730551242828369,-1.1938934326171875
1710737809586866400,9.442866455078125,-0.04931318759918213,-5.820575714111328,-1.0513997077941895
1710737809644751400,9.50075146484375,-0.12668895721435547,-4.858721733093262,-2.481142997741699
1710737809702636000,9.558635986328126,0.7751201391220093,-1.1268324851989746,-0.942314624786377
1710737809760520700,9.616520751953125,-0.8636188507080078,-1.1019902229309082,3.989053249359131
1710737809818405600,9.674405517578125,-2.432155132293701,1.1854867935180664,-0.013735771179199219
1710737809876290300,9.732290283203126,0.5120518207550049,3.3641140460968018,-1.6940531730651855
1710737809934175200,9.79017529296875,-0.15964233875274658,4.15167236328125,-3.2262613773345947
1710737809992060000,9.848059814453125,-0.9076436758041382,2.4308223724365234,-1.7297377586364746
1710737810049944800,9.90594482421875,-1.40825617313385,-1.449361801147461,2.4727468490600586
1710737810107829500,9.96382958984375,-2.359786033630371,-2.956974983215332,5.905409336090088
1710737810165714400,10.02171435546875,-0.4173539876937866,-3.544184684753418,4.332374095916748
1710737810223599000,10.07959912109375,1.3458166122436523,0.4668912887573242,3.352105140686035
1710737810281483800,10.13748388671875,-1.138708233833313,0.022943496704101562,2.9429469108581543
1710737810339368700,10.19536865234375,-1.1910415887832642,1.995224952697754,-0.11271047592163086
1710737810397253400,10.25325341796875,0.7569724321365356,2.6978836059570312,-1.7690296173095703
1710737810455138300,10.31113818359375,-0.24469399452209473,2.3617360591888428,-2.967020034790039
1710737810513023000,10.36902294921875,-0.7171401977539062,0.05607938766479492,-2.5231080055236816
1710737810570907600,10.42690771484375,-0.34791672229766846,-2.8404955863952637,-2.7335047721862793
1710737810628792600,10.48479248046875,0.994598388671875,-4.7579264640808105,-0.669123649597168
1710737810686677200,10.54267724609375,0.08002984523773193,-4.116301536560059,2.3246326446533203
1710737810744562200,10.600562255859375,-0.7073754072189331,-2.6010937690734863,-0.5387125015258789
1710737810802446800,10.65844677734375,1.5336021184921265,-1.0670747756958008,1.8924789428710938
1710737810860331800,10.716331787109375,-1.5449612140655518,0.756187915802002,-0.19644546508789062
1710737810918216400,10.774216552734375,-1.3877131938934326,2.4933900833129883,-2.312136173248291
1710737810976101000,10.83210107421875,-1.7787808179855347,3.3481414318084717,-4.265207767486572
1710737811033986000,10.889986083984375,-0.7675478458404541,1.7461574077606201,-2.467184543609619
1710737811091870700,10.94787060546875,-0.7779908180236816,0.470597505569458,1.385756492614746
1710737811149755600,11.005755615234374,-0.6476752758026123,-0.6097588539123535,4.328442573547363
1710737811207640300,11.063640380859376,1.526395320892334,-0.36277270317077637,5.620391845703125
1710737811265525200,11.121525146484375,0.8220162391662598,2.033996820449829,2.681523323059082
1710737811323410000,11.179409912109374,1.1824307441711426,-0.04768824577331543,2.6612281799316406
1710737811381294600,11.237294677734376,2.268929958343506,-0.7753300666809082,1.070084571838379
1710737811439179500,11.295179443359375,-0.42255187034606934,2.5230870246887207,-5.392595291137695
1710737811497064200,11.353064208984375,-0.5768442153930664,0.9794998168945312,-3.799912929534912
1710737811554949000,11.41094921875,-0.9987262487411499,0.2386385202407837,-4.389414310455322
1710737811612833800,11.468833740234375,-0.13428544998168945,-1.4831187725067139,-1.5392413139343262
1710737811670718500,11.526718505859375,1.1728129386901855,-2.6555163860321045,0.9609279632568359
1710737811728603400,11.584603271484376,1.0240118503570557,-2.663287401199341,1.8717832565307617
1710737811786488000,11.642488037109375,0.05877280235290527,-2.7631888389587402,2.6246471405029297
1710737811844373000,11.700373046875,1.2172791957855225,-0.055025577545166016,2.9180078506469727
1710737811902257700,11.758257568359374,-2.012908935546875,-0.3589048385620117,1.3854036331176758
1710737811960142600,11.816142578125,-1.275187373161316,1.5956785678863525,-2.620842456817627
1710737812018027300,11.87402734375,-0.8825962543487549,2.706735610961914,-4.590654373168945
1710737812075912200,11.931912109375,-1.3416374921798706,2.533639430999756,-3.2240419387817383
1710737812133796900,11.989796875,-1.6139272451400757,0.8897039890289307,0.4843883514404297
1710737812191681800,12.047681884765625,-1.0777214765548706,-1.1796965599060059,3.91562557220459
1710737812249566500,12.10556640625,0.24164319038391113,-1.4108681678771973,5.350099563598633
1710737812307451400,12.163451416015626,0.49687886238098145,0.7476716041564941,3.8674044609069824
1710737812365336000,12.221336181640625,0.440014123916626,1.7027795314788818,3.262908935546875
1710737812423221000,12.279220947265625,0.5876743793487549,-0.28271055221557617,3.425347328186035
1710737812481105700,12.337105712890626,1.5357260704040527,1.6248233318328857,-0.09080219268798828
1710737812538990300,12.394990234375,1.6078667640686035,1.5224757194519043,-2.6014962196350098
1710737812596875300,12.452875244140625,0.29286670684814453,0.28055858612060547,-4.286111354827881
1710737812654760000,12.510760009765624,-0.18098068237304688,-1.9958677291870117,-4.025424003601074
1710737812712644900,12.568644775390625,0.4012385606765747,-3.367811679840088,-2.8322367668151855
1710737812770529800,12.62652978515625,1.2626293897628784,-4.241433143615723,-0.41497039794921875
1710737812828414500,12.68441455078125,-0.027208447456359863,-3.5106165409088135,0.894932746887207
1710737812886299100,12.742299072265626,0.6989681720733643,-1.112168312072754,0.4241762161254883
1710737812944184000,12.80018408203125,1.4286667108535767,-1.617234706878662,5.025504112243652
1710737813002068700,12.85806884765625,-2.806405782699585,1.2533106803894043,0.1019449234008789
1710737813059953700,12.91595361328125,-1.0145020484924316,3.606295347213745,-2.1645383834838867
1710737813117838600,12.973838623046875,-0.3145991563796997,4.06919527053833,-4.092643737792969
1710737813175723300,13.03172314453125,0.6133006811141968,1.9653499126434326,-1.9067416191101074
1710737813233608200,13.089608154296876,-0.5192664861679077,0.23577308654785156,1.174191951751709
1710737813291492900,13.147492919921875,-0.9898171424865723,-1.4882702827453613,5.062926769256592
1710737813349377800,13.205377685546875,0.5203027725219727,-2.5924487113952637,6.566665172576904
1710737813407262500,13.263262451171874,0.9922113418579102,1.5691595077514648,4.287110805511475
1710737813465147400,13.3211474609375,0.12442469596862793,-0.6819686889648438,4.6571269035339355
1710737813523032000,13.379031982421875,1.2138700485229492,0.48897886276245117,0.5661625862121582
1710737813580917000,13.4369169921875,1.5970391035079956,1.885329246520996,-2.209179401397705
1710737813638802000,13.494802001953126,-0.3588060140609741,0.9127004146575928,-3.871737480163574
1710737813696686600,13.5526865234375,-0.36773645877838135,-1.4785850048065186,-3.9462924003601074
1710737813754571500,13.610571533203125,0.3090461492538452,-2.882685899734497,-4.441854000091553
1710737813812456200,13.668456298828126,1.7383090257644653,-4.596573829650879,-2.0576133728027344
1710737813870341000,13.726341064453125,0.7255628108978271,-3.429628849029541,-0.18905353546142578
1710737813928226000,13.78422607421875,-0.9975301623344421,-3.476719856262207,1.7077398300170898
1710737813986110700,13.84211083984375,-0.035885393619537354,-0.3054676055908203,4.406506538391113
1710737814043995600,13.89999560546875,-1.2585480213165283,-0.14963245391845703,1.4363946914672852
1710737814101880300,13.95788037109375,0.04772484302520752,2.3334758281707764,-2.5052990913391113
1710737814159765200,14.01576513671875,0.5880573987960815,3.5262274742126465,-3.9821128845214844
1710737814217650200,14.073650146484376,-0.36065495014190674,2.7240145206451416,-3.7389097213745117
1710737814275534800,14.131534912109375,-0.9700541496276855,0.27092456817626953,0.3567333221435547
1710737814333419800,14.189419677734374,-1.2103476524353027,-1.1372957229614258,3.2596421241760254
1710737814391304400,14.247304443359376,-0.42620420455932617,-1.8701090812683105,5.807806491851807
1710737814449189400,14.305189453125,-0.4243985414505005,-0.43144750595092773,4.332187175750732
1710737814507074300,14.36307421875,0.9454069137573242,1.965742588043213,3.512819290161133
1710737814564959200,14.420959228515626,0.17938387393951416,-0.08971548080444336,3.0229177474975586
1710737814622844000,14.478843994140625,1.4965873956680298,1.4278769493103027,-0.40135669708251953
1710737814680728800,14.536728759765625,0.27591776847839355,2.9400434494018555,-4.007498264312744
1710737814738613800,14.59461376953125,0.18278050422668457,1.7309396266937256,-3.830886125564575
1710737814796498400,14.65249853515625,0.1453162431716919,-0.7681999206542969,-1.9501543045043945
1710737814854383400,14.71038330078125,0.6406208276748657,-2.5369086265563965,-0.8919529914855957
1710737814912268300,14.768268310546874,0.40491247177124023,-3.658626079559326,0.8147287368774414
1710737814970153200,14.8261533203125,-0.7231086492538452,-4.914228916168213,2.26995849609375
1710737815028038000,14.884037841796875,0.8989020586013794,0.18998479843139648,-0.6018781661987305
1710737815085922800,14.9419228515625,-0.7394731044769287,-2.017153263092041,1.925405502319336
1710737815143807700,14.999807861328126,-1.0475329160690308,1.0186982154846191,-1.6217503547668457
1710737815201692700,15.057692626953125,-0.968900203704834,3.0744106769561768,-3.63112473487854
1710737815259577600,15.11557763671875,-1.8234436511993408,3.7071661949157715,-2.987149715423584
1710737815317462300,15.173462158203124,-1.5362972021102905,1.4382824897766113,0.11586904525756836
1710737815375347200,15.23134716796875,-1.0308889150619507,0.5868468284606934,2.797760486602783
1710737815433232100,15.289232177734375,-0.14524459838867188,-1.9094610214233398,5.407253742218018
1710737815491117000,15.347116943359374,0.7043108940124512,-3.583098888397217,6.114157199859619
1710737815549002000,15.405001953125,1.677361249923706,-0.09854555130004883,1.2660856246948242
1710737815606886700,15.46288671875,0.23367977142333984,-0.8992257118225098,0.33849430084228516
1710737815664771600,15.520771484375,1.5336347818374634,1.460115909576416,-1.2094197273254395
1710737815722656500,15.578656494140626,0.8485140800476074,3.3977627754211426,-2.2037391662597656
1710737815780541400,15.63654150390625,-1.0854990482330322,2.905881643295288,-3.6965012550354004
1710737815838426400,15.69442626953125,-0.47825586795806885,0.7515873908996582,-2.403456211090088
1710737815896311300,15.752311279296874,0.17754781246185303,-1.0923957824707031,-0.40779638290405273
1710737815954196200,15.8101962890625,1.7248196601867676,-3.2705793380737305,1.5955238342285156
1710737816012081200,15.8680810546875,0.835699200630188,-3.497478485107422,0.9933385848999023
1710737816069966000,15.925966064453124,0.25115418434143066,-2.2713193893432617,-0.605980396270752
1710737816127851000,15.98385107421875,1.698325514793396,-1.8541455268859863,1.4002199172973633
1710737816185736000,16.04173583984375,-1.7784671783447266,-1.6008696556091309,-1.8711395263671875
1710737816243620900,16.099620849609376,0.7903529405593872,1.9204599857330322,-2.692751884460449
1710737816301505800,16.157505859375,-1.604288935661316,3.477180242538452,-3.3014655113220215
1710737816359390700,16.215390625,-2.610999584197998,3.1673450469970703,-2.2340245246887207
1710737816417275600,16.273275634765625,-1.0177026987075806,0.1953902244567871,1.2242069244384766
1710737816475160600,16.33116064453125,0.6740436553955078,-0.9543061256408691,6.47847843170166
1710737816533045500,16.38904541015625,-1.8935465812683105,-1.393498420715332,5.35115385055542
1710737816590930400,16.446930419921873,0.8307406902313232,-1.0132322311401367,2.3247756958007812
1710737816648815400,16.5048154296875,1.0678374767303467,0.08478307723999023,3.0399374961853027
1710737816706700300,16.5627001953125,0.7069797515869141,-0.8816566467285156,1.3552379608154297
1710737816764585500,16.62058544921875,1.7010118961334229,1.0539703369140625,-1.592200756072998
1710737816822470400,16.678470458984375,0.1418386697769165,1.5169384479522705,-3.9167985916137695
1710737816880355300,16.736355224609376,-0.04267406463623047,0.5046327114105225,-3.734035015106201
1710737816938240300,16.794240234375,-1.0783956050872803,-1.1565704345703125,-3.456702709197998
1710737816996125200,16.852125244140623,0.282517671585083,-2.7943341732025146,-2.302241802215576
1710737817054010000,16.910010009765625,0.336875319480896,-3.9353113174438477,-0.3097953796386719
1710737817111895000,16.96789501953125,-1.3424162864685059,-4.294837951660156,1.5606117248535156
1710737817169780200,17.0257802734375,1.275552749633789,-0.45061349868774414,1.3402471542358398
1710737817227665200,17.0836650390625,-0.48578405380249023,-1.2491841316223145,2.459906578063965
1710737817285550000,17.141550048828126,-0.7105547785758972,1.7726140022277832,-0.46472835540771484
1710737817343435000,17.19943505859375,-0.07788228988647461,3.7449209690093994,-2.888972282409668
1710737817401320200,17.2573203125,-2.213195323944092,3.702204465866089,-2.788663387298584
1710737817459205000,17.315205078125,-0.9402532577514648,1.7470149993896484,-1.2384247779846191
1710737817517090000,17.373090087890624,-0.26656973361968994,-0.6376681327819824,2.1776275634765625
1710737817574975200,17.430975341796874,0.028150081634521484,-1.7982878684997559,5.124867916107178
1710737817632860200,17.488860107421875,-0.3550499677658081,-1.9617810249328613,5.858430862426758
1710737817690745000,17.5467451171875,0.786064624786377,1.2047863006591797,3.4703097343444824
1710737817748630300,17.60463037109375,0.018987059593200684,-1.1520142555236816,3.476959228515625
1710737817806515200,17.66251513671875,1.6495147943496704,-0.15480375289916992,0.23178958892822266
1710737817864400100,17.720400146484376,1.975265622138977,1.923391580581665,-2.923609733581543
1710737817922285300,17.778285400390626,-0.46766960620880127,1.4462406635284424,-4.696942329406738
1710737817980170200,17.836170166015624,-0.4245825409889221,-0.6723065376281738,-4.805882930755615
1710737818038055400,17.894055419921877,-0.02656412124633789,-2.0801210403442383,-3.5111660957336426
1710737818095940400,17.9519404296875,0.7877496480941772,-3.865874767303467,-0.7921109199523926
1710737818153825300,18.0098251953125,0.7482481598854065,-3.0422120094299316,0.8964157104492188
1710737818211710500,18.06771044921875,-0.40473616123199463,-2.7792115211486816,1.2575311660766602
1710737818269595400,18.125595458984375,0.8081958293914795,-0.19449710845947266,4.895816326141357
1710737818327480600,18.18348046875,-1.9537906646728516,0.32332563400268555,1.9518227577209473
1710737818385365500,18.241365478515625,0.7003393173217773,2.872169256210327,-2.086418628692627
1710737818443250700,18.299250732421875,0.22703516483306885,3.5200631618499756,-4.320178985595703
1710737818501135600,18.357135498046876,-1.4439418315887451,2.6981687545776367,-3.3125710487365723
1710737818559020800,18.415020751953126,-1.0058298110961914,0.4439387321472168,-0.008595943450927734
1710737818616906000,18.472906005859375,-0.6031829118728638,-1.603712558746338,3.632260322570801
1710737818674791000,18.530791015625,-1.0591309070587158,-1.8587150573730469,5.665350437164307
1710737818732676000,18.588676025390626,-0.2224578857421875,0.35343122482299805,4.279998302459717
1710737818790561000,18.64656103515625,0.6102743148803711,0.595496654510498,4.422804832458496
1710737818848446200,18.7044462890625,1.2207437753677368,-0.9021358489990234,2.0299906730651855
1710737818906331100,18.7623310546875,2.9748640060424805,1.4017233848571777,-0.9293627738952637
1710737818964216300,18.82021630859375,1.492637038230896,1.9007306098937988,-3.1907835006713867
1710737819022101500,18.8781015625,-0.30018240213394165,0.35254526138305664,-4.102742671966553
1710737819079986400,18.935986328125,-0.40774965286254883,-1.4018745422363281,-3.846320629119873
1710737819137871600,18.99387158203125,0.44012248516082764,-3.5571048259735107,-2.1304945945739746
1710737819195756800,19.0517568359375,1.2333667278289795,-3.386810541152954,-0.6771316528320312
1710737819253642000,19.10964208984375,-0.1527377963066101,-5.112977027893066,0.7410297393798828
1710737819311527000,19.16752685546875,1.6071951389312744,-1.1564874649047852,1.8543996810913086
1710737819369412000,19.225412109375,-1.9989619255065918,-1.132497787475586,1.888810157775879
1710737819427297300,19.28329736328125,-1.3404453992843628,2.0293140411376953,-1.0401625633239746
1710737819485182200,19.34118212890625,-0.11358880996704102,3.456254005432129,-3.2547311782836914
1710737819543067400,19.3990673828125,-1.2374151945114136,3.513507127761841,-3.0596585273742676
1710737819600952600,19.45695263671875,-1.3221173286437988,1.1217279434204102,-0.08429718017578125
1710737819658837800,19.514837646484374,-0.9442364573478699,-0.884739875793457,2.735800266265869
1710737819716723000,19.572722900390627,-0.4543273448944092,-1.583425521850586,5.547426223754883
1710737819774608100,19.630608154296876,-0.8798010945320129,-1.2296009063720703,5.6517510414123535
1710737819832493000,19.6884931640625,0.39855265617370605,1.7590460777282715,4.692231178283691
1710737819890378200,19.746378173828123,0.018201351165771484,0.12529420852661133,3.7792038917541504
1710737819948263400,19.804263427734377,2.431671142578125,0.12756109237670898,-0.13039779663085938
1710737820006148600,19.862148681640626,2.6485183238983154,1.181098461151123,-2.7664427757263184
1710737820064033800,19.92003369140625,0.1744016408920288,0.46760058403015137,-4.322656154632568
1710737820121919000,19.9779189453125,-0.6733376383781433,-1.002868890762329,-4.073120594024658
1710737820179804200,20.03580419921875,-0.06951034069061279,-2.8433377742767334,-3.541135311126709
1710737820237689300,20.093689453125,0.4443540573120117,-4.722471237182617,-1.213266372680664
1710737820295574500,20.151574462890625,-0.36136239767074585,-5.187034606933594,0.2660970687866211
1710737820353459700,20.209459716796875,1.1344209909439087,-0.8569412231445312,-0.3109560012817383
1710737820411345000,20.267344970703125,-0.21329963207244873,-1.4874224662780762,4.268446445465088
1710737820469230000,20.32522998046875,-2.05218505859375,1.3544011116027832,1.0634660720825195
1710737820527115300,20.383115234375,-0.1692572832107544,3.4966204166412354,-2.084412097930908
1710737820585000400,20.44100048828125,-0.876923680305481,3.9888055324554443,-3.4252800941467285
1710737820642885600,20.4988857421875,-1.2796266078948975,2.612257957458496,-1.8990345001220703
1710737820700770800,20.556770751953124,-0.5482594966888428,0.16570234298706055,1.4104599952697754
1710737820758656000,20.614656005859374,-0.31562793254852295,-1.6646742820739746,4.728780269622803
1710737820816541200,20.672541259765627,-0.9249715805053711,-2.403022289276123,5.819258213043213
1710737820874426600,20.730426513671876,0.1710212230682373,1.1800107955932617,3.916604518890381
1710737820932311800,20.788311767578126,0.2278580665588379,-0.22279691696166992,4.365452289581299
1710737820990197000,20.846197021484375,1.5302679538726807,-0.0472564697265625,1.388181209564209
1710737821048082200,20.904082275390625,2.312746286392212,1.8041234016418457,-1.7144274711608887
1710737821105967400,20.96196728515625,0.601872444152832,1.1481759548187256,-4.039299488067627
1710737821163852500,21.0198525390625,-0.12901055812835693,-0.2695741653442383,-3.807321548461914
1710737821221737700,21.07773779296875,-0.6726160049438477,-1.9758234024047852,-3.465503215789795
1710737821279623200,21.135623046875,1.1021959781646729,-4.306577205657959,-1.1716156005859375
1710737821337508400,21.19350830078125,1.103796362876892,-4.008996486663818,-0.4571952819824219
1710737821395393500,21.2513935546875,0.28515052795410156,-3.8160619735717773,-1.0424919128417969
1710737821453278700,21.30927880859375,1.7965900897979736,-1.6278705596923828,2.4503002166748047
1710737821511164200,21.3671640625,-2.3497889041900635,-0.07422780990600586,0.8960895538330078
1710737821569049300,21.42504931640625,-0.4391714930534363,3.2270073890686035,-0.8284025192260742
1710737821626934500,21.4829345703125,-0.8820828795433044,4.277771472930908,-1.6204800605773926
1710737821684819700,21.54081982421875,-1.6180188655853271,3.5753989219665527,-0.9745497703552246
1710737821742705200,21.598705078125,-2.0394039154052734,1.442244529724121,0.5364093780517578
1710737821800590300,21.65659033203125,-1.292951226234436,-1.2063541412353516,2.8143153190612793
1710737821858475500,21.7144755859375,-0.5778952836990356,-1.7942285537719727,4.290802478790283
1710737821916361000,21.77236083984375,0.04346275329589844,-1.653533935546875,4.021969318389893
1710737821974246100,21.83024609375,0.5753301382064819,0.268218994140625,5.712250232696533
1710737822032131300,21.88813134765625,0.2752343416213989,-0.6105613708496094,2.8354392051696777
1710737822090016800,21.946016845703124,1.9864391088485718,1.7031972408294678,-1.309443473815918
1710737822147902000,22.00390185546875,0.868822455406189,1.6495361328125,-3.5222067832946777
1710737822205787100,22.061787109375,-0.5072994828224182,0.12539362907409668,-4.583723068237305
1710737822263672600,22.119672607421876,-0.22418475151062012,-2.01908278465271,-3.6731529235839844
1710737822321557800,22.177557861328125,0.14751970767974854,-4.044706344604492,-2.342130184173584
1710737822379443200,22.235443115234375,1.0426503419876099,-4.548089981079102,-1.2153558731079102
1710737822437328400,22.293328369140625,-0.0804259181022644,-5.826993942260742,0.7667388916015625
1710737822495213600,22.351213623046874,1.8584330081939697,-1.1825032234191895,1.5763397216796875
1710737822553099000,22.40909912109375,-1.7514711618423462,-0.9808497428894043,2.1875476837158203
1710737822610984200,22.466984130859377,-1.772184133529663,2.8951356410980225,-0.5220952033996582
1710737822668869600,22.52486962890625,0.07718074321746826,4.458459854125977,-2.2143454551696777
1710737822726754800,22.5827548828125,-1.0283112525939941,4.157889366149902,-2.067715644836426
1710737822784640300,22.64064013671875,-1.9180779457092285,2.0682497024536133,0.431063175201416
1710737822842525400,22.698525390625,-1.0518641471862793,-0.6843781471252441,3.477130889892578
1710737822900410600,22.75641064453125,-0.024537205696105957,-1.7711296081542969,5.110203266143799
1710737822958296000,22.814296142578126,-0.05742514133453369,-1.3373570442199707,5.048117637634277
1710737823016181200,22.87218115234375,0.9764772653579712,0.2559523582458496,5.119423866271973
1710737823074066700,22.930066650390625,0.48338985443115234,-0.9743828773498535,3.5079498291015625
1710737823131951900,22.987951904296875,2.201620578765869,1.8071191310882568,-0.5614361763000488
1710737823189839400,23.04583935546875,1.6579731702804565,1.638577938079834,-3.289994239807129
1710737823247724500,23.103724609375,-0.1865980625152588,-0.39324522018432617,-4.885710716247559
1710737823305610000,23.16160986328125,-0.7258071303367615,-2.5749573707580566,-4.746980667114258
1710737823363495200,23.2194951171875,0.5837443470954895,-3.610274076461792,-3.6715550422668457
1710737823421380600,23.277380615234375,2.0660758018493652,-4.8946309089660645,-1.0097064971923828
1710737823479265800,23.335265869140624,0.30598562955856323,-5.8930983543396,0.18901443481445312
1710737823537151200,23.393151123046874,2.08598256111145,-0.274777889251709,-0.8833365440368652
1710737823595036400,23.451036376953127,-2.5734245777130127,-1.6299104690551758,3.6431522369384766
1710737823652921900,23.508921875,-1.7569429874420166,0.8852996826171875,2.01425838470459
1710737823710807000,23.56680712890625,0.066916823387146,4.137580871582031,-0.6745724678039551
1710737823768692500,23.6246923828125,-1.8405979871749878,5.223896503448486,-1.4514398574829102
1710737823826577700,23.68257763671875,-2.034743547439575,3.225672721862793,-0.6697382926940918
1710737823884463000,23.740463134765626,-0.24141192436218262,-0.2409214973449707,2.371887683868408
1710737823942348300,23.798348388671876,-0.027658700942993164,-2.1221365928649902,4.820131778717041
1710737824000233700,23.856233642578125,-0.6508718729019165,-1.758409023284912,6.126953601837158
1710737824058119000,23.914118896484375,0.29030001163482666,1.6470389366149902,3.8271965980529785
1710737824116004400,23.97200439453125,0.5403883457183838,-1.207082748413086,4.0806169509887695
1710737824173889500,24.0298896484375,1.4464033842086792,-0.8382511138916016,1.086423397064209
1710737824231775000,24.08777490234375,2.8801162242889404,1.0534296035766602,-1.8248810768127441
1710737824289660200,24.14566015625,0.8529729843139648,0.162489652633667,-4.14736795425415
1710737824347545600,24.203545654296875,-0.5615426898002625,-1.4932334423065186,-4.819534778594971
1710737824405430800,24.2614306640625,-0.601628303527832,-2.9326982498168945,-5.035854816436768
1710737824463316200,24.319316162109374,0.24567890167236328,-4.870583534240723,-2.737086296081543
1710737824521201400,24.377201416015627,0.8963079452514648,-3.3591392040252686,-1.1210722923278809
1710737824579086800,24.4350869140625,-0.7582560181617737,-4.7430949211120605,1.3617658615112305
1710737824636972000,24.492971923828126,0.944128155708313,-0.606818675994873,3.9818668365478516
1710737824694857500,24.550857421875,-1.098240613937378,-0.058872222900390625,3.5955657958984375
1710737824752742700,24.60874267578125,-0.12909454107284546,3.2872536182403564,-0.20769262313842773
1710737824810628000,24.666628173828126,0.34112071990966797,4.158331871032715,-2.673920154571533
1710737824868513300,24.72451318359375,-1.0086098909378052,3.4893927574157715,-2.734711170196533
1710737824926398700,24.782398681640625,-1.88459312915802,1.3611125946044922,-0.4085407257080078
1710737824984284000,24.840283935546875,-0.2836191654205322,-1.0135478973388672,3.407008171081543
1710737825042169300,24.89816943359375,-0.25526344776153564,-2.2602434158325195,5.960890769958496
1710737825100054500,24.956054443359374,-0.6904270648956299,-0.9187345504760742,5.131097316741943
1710737825157940000,25.01393994140625,-0.2067166566848755,1.3215198516845703,4.451826572418213
1710737825215825200,25.0718251953125,0.504521906375885,-0.6123299598693848,1.7955870628356934
1710737825273710600,25.129710693359375,3.155555248260498,1.028902530670166,-1.7915520668029785
1710737825331595800,25.187595703125,2.030377149581909,1.5616297721862793,-3.364867687225342
1710737825389481200,25.245481201171874,-0.1215788722038269,0.4567852020263672,-4.002017974853516
1710737825447366400,25.303366455078127,-0.5436492562294006,-1.6014368534088135,-3.006831645965576
1710737825505251800,25.361251953125,0.5953307151794434,-3.1364004611968994,-2.302992820739746
1710737825563137000,25.419136962890626,1.7016704082489014,-4.261745929718018,-1.4615740776062012
1710737825621022500,25.4770224609375,0.7776511311531067,-4.809412479400635,-0.6173849105834961
1710737825678907600,25.53490771484375,1.0155329704284668,-1.0478110313415527,-0.8708529472351074
1710737825736793000,25.59279296875,-0.31468820571899414,-1.9320220947265625,3.9090576171875
1710737825794678300,25.65067822265625,-2.183126449584961,0.8272581100463867,0.7069149017333984
1710737825852563700,25.708563720703125,-1.1291255950927734,3.475707769393921,-2.0460867881774902
1710737825910449000,25.766448974609375,-2.035573959350586,3.83280086517334,-2.6818108558654785
1710737825968334300,25.824334228515625,-2.667299747467041,1.6550378799438477,-0.9943609237670898
1710737826026219500,25.882219482421874,-1.644719123840332,-0.5160813331604004,2.1666107177734375
1710737826084105000,25.94010498046875,-0.9867161512374878,-1.847653865814209,4.611668586730957
1710737826141990100,25.997990234375,-0.7751268148422241,-2.1203041076660156,4.508368968963623
1710737826199875600,26.05587548828125,0.5762959718704224,1.3303756713867188,2.124405860900879
1710737826257760800,26.1137607421875,0.23718750476837158,0.1920948028564453,4.7100677490234375
1710737826315646200,26.171646240234374,0.7080633044242859,0.22241783142089844,3.074920177459717
1710737826373531400,26.229531494140623,1.9867945909500122,2.292351484298706,0.007297039031982422
1710737826431416800,26.287416748046876,0.6759987473487854,1.3713204860687256,-2.7247328758239746
1710737826489302000,26.345302001953126,-0.19276458024978638,-0.9143617153167725,-3.6046338081359863
1710737826547187500,26.4031875,-0.5935136675834656,-2.7350432872772217,-3.943922996520996
1710737826605072600,26.46107275390625,0.11042296886444092,-4.056695938110352,-3.2572312355041504
1710737826662958000,26.5189580078125,0.6892585754394531,-4.200991630554199,-1.7578678131103516
1710737826720843300,26.57684326171875,0.18525004386901855,-4.615904808044434,0.24907684326171875
1710737826778728700,26.634728759765625,2.434329032897949,-0.22345542907714844,1.113398551940918
1710737826836614000,26.69261376953125,-1.8022010326385498,-1.1280932426452637,4.206446647644043
1710737826894499300,26.750499267578125,-3.7796812057495117,2.338907480239868,1.0227460861206055
1710737826952384500,26.808384521484374,-0.9811241626739502,3.5166072845458984,-2.017760753631592
1710737827010270000,26.86627001953125,0.008987069129943848,3.4867470264434814,-2.9442591667175293
1710737827068155100,26.924155029296877,-0.4551422595977783,2.0459680557250977,-1.5024538040161133
1710737827126040600,26.98204052734375,-0.8149212598800659,0.20854949951171875,1.702925205230713
1710737827183925800,27.03992578125,-0.5235316157341003,-1.2322039604187012,3.8742876052856445
1710737827241811200,27.097811279296874,0.10009527206420898,-2.302457332611084,4.738501071929932
1710737827299696400,27.1556962890625,1.4798681735992432,0.7236204147338867,4.28158712387085
1710737827357581600,27.21358154296875,1.190803050994873,-1.2975564002990723,3.7100772857666016
1710737827415467000,27.271467041015626,1.5602006912231445,0.21071243286132812,-0.36564016342163086
1710737827473352200,27.329352294921875,0.5182358026504517,2.423212766647339,-2.9648561477661133
1710737827531237600,27.387237548828125,-0.9081790447235107,1.6371333599090576,-3.8024706840515137
1710737827589122800,27.445122802734375,-1.648345947265625,-0.5552568435668945,-3.522296905517578
1710737827647008300,27.50300830078125,-0.5801689624786377,-2.293264627456665,-2.3391852378845215
1710737827704893400,27.5608935546875,0.8603965640068054,-4.392576694488525,0.7659673690795898
1710737827762779000,27.61877880859375,0.8745766878128052,-4.0537638664245605,0.8553495407104492
1710737827820664000,27.6766640625,0.6519697904586792,-1.6956610679626465,-0.653867244720459
1710737827878549500,27.734549560546874,1.1960734128952026,-1.0146312713623047,3.249521255493164
1710737827936434700,27.7924345703125,-1.6702163219451904,0.25944995880126953,0.5596365928649902
1710737827994320100,27.850320068359373,0.4711592197418213,2.7337701320648193,-2.2125163078308105
1710737828052205300,27.908205322265626,-0.5399066209793091,3.700144052505493,-3.1536483764648438
1710737828110090800,27.9660908203125,-1.6766144037246704,2.9330484867095947,-1.991781234741211
1710737828167976000,28.023975830078125,-1.3430806398391724,0.6908793449401855,1.1564555168151855
1710737828225861000,28.081861083984375,-0.4457385540008545,-2.1454954147338867,4.275468349456787
1710737828283746600,28.13974658203125,-0.9888903498649597,-3.1163859367370605,5.105373382568359
1710737828341631700,28.1976318359375,0.1456911563873291,-0.05661916732788086,2.008141040802002
1710737828399517200,28.25551708984375,0.4495185613632202,0.6016912460327148,3.0982723236083984
1710737828457402400,28.31340234375,0.8667799234390259,-0.17194700241088867,1.7670602798461914
1710737828515287600,28.37128759765625,2.2090132236480713,2.4201645851135254,-0.7188549041748047
1710737828573173000,28.429173095703124,0.40956878662109375,2.532036066055298,-2.7396187782287598
1710737828631058200,28.48705810546875,-0.2829866409301758,1.258955478668213,-3.3547472953796387
1710737828688943600,28.544943603515627,-0.9336516857147217,-1.6031317710876465,-2.1256885528564453
1710737828746828800,28.602828857421876,1.2256245613098145,-3.3929543495178223,-1.4181208610534668
1710737828804714200,28.66071435546875,2.678647756576538,-3.9442009925842285,-0.4538898468017578
1710737828862599400,28.718599365234375,-0.282331645488739,-4.539819717407227,-0.3387336730957031
1710737828920484600,28.776484619140625,1.362937331199646,-0.5743618011474609,0.3775634765625
1710737828978370000,28.8343701171875,-0.972888708114624,-1.8073716163635254,1.4340205192565918
1710737829036255200,28.892255126953124,-0.6922227144241333,1.5763483047485352,-0.7337131500244141
1710737829094140400,28.950140380859374,-2.4957449436187744,3.2526326179504395,-1.9098758697509766
1710737829152025900,29.00802587890625,-3.5338289737701416,3.692265033721924,-2.080533981323242
1710737829209911000,29.0659111328125,-1.765303134918213,1.0778932571411133,-0.36916160583496094
1710737829267796500,29.12379638671875,-1.2792490720748901,-1.1367058753967285,2.157928466796875
1710737829325681700,29.181681640625,-0.06022238731384277,-2.4658656120300293,5.285425186157227
1710737829383566800,29.23956689453125,0.03629183769226074,-1.7958335876464844,4.950690269470215
1710737829441452300,29.297452392578126,0.8930914402008057,1.8913393020629883,4.075228691101074
1710737829499337500,29.35533740234375,-0.05347728729248047,-0.5879616737365723,4.449190616607666
1710737829557222700,29.41322265625,1.7828409671783447,1.0126838684082031,1.1850800514221191
1710737829615108000,29.471108154296875,1.3636581897735596,1.9071924686431885,-1.845360279083252
1710737829672993300,29.5289931640625,0.16237759590148926,0.5378429889678955,-4.395651817321777
1710737829730878500,29.58687841796875,-0.15980929136276245,-1.7736432552337646,-3.7283525466918945
1710737829788764000,29.644763916015624,0.09594762325286865,-3.34645676612854,-3.4674124717712402
1710737829846649000,29.702649169921877,1.1735281944274902,-5.132189750671387,-1.1231412887573242
1710737829904534300,29.7605341796875,0.014098703861236572,-5.491083145141602,0.602137565612793
1710737829962419700,29.818419677734376,0.774628221988678,-1.2351465225219727,-0.3051443099975586
1710737830020305000,29.876304931640625,0.1747276782989502,-2.3944263458251953,3.3147668838500977
1710737830078190000,29.934190185546875,-1.630731225013733,0.9610109329223633,-0.3073596954345703
1710737830136075300,29.9920751953125,-1.6279003620147705,3.6965627670288086,-1.7243638038635254
1710737830193960700,30.049960693359374,-3.0486927032470703,4.399405479431152,-2.909067153930664
1710737830251846000,30.107845947265623,-2.1827774047851562,3.054757833480835,-1.4307160377502441
1710737830309731000,30.16573095703125,-1.2599536180496216,0.2914609909057617,2.1281228065490723
1710737830367616500,30.223616455078126,0.996874988079071,-1.0571622848510742,5.998849391937256
1710737830425501700,30.281501708984376,0.5129400491714478,-1.693812370300293,6.182995319366455
1710737830483387000,30.339386962890625,0.7882908582687378,1.4541325569152832,3.463700771331787
1710737830541272000,30.39727197265625,0.03888428211212158,0.7164673805236816,3.9122772216796875
1710737830599157500,30.455157470703124,-0.9060982465744019,-0.626556396484375,1.040205955505371
1710737830657042700,30.513042724609374,1.3594682216644287,0.9671916961669922,-1.9111223220825195
1710737830714927900,30.570927978515623,-0.018995165824890137,1.014998435974121,-3.8709030151367188
1710737830772813300,30.628813232421876,-0.9352958798408508,-0.47370076179504395,-4.0408501625061035
1710737830830698500,30.686698486328126,-0.5418355464935303,-2.2233238220214844,-3.150390148162842
1710737830888583700,30.744583740234376,0.7716492414474487,-3.940734386444092,-1.3807034492492676
1710737830946468900,30.80246875,1.254370927810669,-3.0373330116271973,-0.6129064559936523
1710737831004354000,30.86035400390625,-0.225666344165802,-4.208537578582764,0.2687692642211914
1710737831062239500,30.918239501953124,1.0608344078063965,-2.2495265007019043,2.309774398803711
1710737831120124700,30.976124755859374,-1.122988224029541,-1.2616496086120605,2.7236413955688477
1710737831178009900,31.034009765625,-2.009108543395996,3.0852882862091064,-1.601952075958252
1710737831235895000,31.09189501953125,-1.3081800937652588,4.205578804016113,-3.8400943279266357
1710737831293780200,31.1497802734375,-1.8092371225357056,2.768047332763672,-3.7461116313934326
1710737831351665700,31.207665771484375,-0.7336148619651794,0.4264230728149414,1.329099178314209
1710737831409550800,31.26555078125,-0.14588356018066406,-2.1483302116394043,5.2571611404418945
1710737831467436000,31.32343603515625,-0.805587112903595,-1.2381587028503418,6.0459675788879395
1710737831525321200,31.3813212890625,0.09405016899108887,0.6390376091003418,3.870738983154297
1710737831583206400,31.439206298828125,0.9710975885391235,0.7022566795349121,4.400191783905029
1710737831641091600,31.497091552734375,1.0099501609802246,-0.7320027351379395,2.420933246612549
1710737831698977000,31.55497705078125,1.5519176721572876,1.8651671409606934,-0.9721965789794922
1710737831756862200,31.6128623046875,0.24605834484100342,1.8917620182037354,-2.8027167320251465
1710737831814747400,31.670747314453124,-0.5221865773200989,-0.4884171485900879,-3.9258923530578613
1710737831872632600,31.728632568359377,-0.5174365639686584,-2.402137279510498,-3.775360584259033
1710737831930517800,31.786517822265626,0.12366330623626709,-3.820152759552002,-2.8112564086914062
1710737831988403000,31.84440283203125,0.573649525642395,-4.008504867553711,-0.9100494384765625
1710737832046288100,31.9022880859375,-1.0795297622680664,-4.330694675445557,0.5620040893554688
1710737832104173600,31.960173583984375,0.7795107364654541,-0.44703054428100586,0.5629568099975586
1710737832162058800,32.01805883789063,-0.4761870503425598,-1.119835376739502,3.3907485008239746
1710737832219944000,32.07594384765625,-0.4520862400531769,1.8911848068237305,-0.3866114616394043
1710737832277829000,32.1338291015625,0.7458499670028687,3.665480852127075,-2.3847875595092773
1710737832335714300,32.19171435546875,-0.44717937707901,3.733280897140503,-2.0524535179138184
1710737832393599500,32.249599609375,-0.9669109582901001,2.345944881439209,0.0741572380065918
1710737832451484700,32.307484619140624,-0.13745856285095215,-0.2570610046386719,2.975231647491455
1710737832509369900,32.36536987304687,0.13601362705230713,-1.8676743507385254,4.880969047546387
1710737832567255300,32.42325537109375,-1.1708195209503174,-2.1645426750183105,4.544044494628906
1710737832625140500,32.48114038085937,0.02566659450531006,0.5907745361328125,3.868412971496582
1710737832683025700,32.53902563476562,-0.494371235370636,-1.708444595336914,2.9636526107788086
1710737832740910800,32.59691088867187,0.9586436748504639,0.2258915901184082,-0.7318844795227051
1710737832798796000,32.65479614257813,0.8759456872940063,1.7294394969940186,-2.979766368865967
1710737832856681200,32.71268115234375,-0.42540985345840454,0.9512763023376465,-4.277530193328857
1710737832914566400,32.77056640625,-0.465640664100647,-1.70241379737854,-4.068474292755127
1710737832972451600,32.82845166015625,0.06250917911529541,-2.9985291957855225,-3.8616418838500977
1710737833030336800,32.886336669921874,1.2710068225860596,-4.5115156173706055,-0.2491741180419922
1710737833088222000,32.944221923828124,0.6225799322128296,-3.1688554286956787,0.41393280029296875
1710737833146107100,33.00210717773437,-0.8114271759986877,-2.1634063720703125,0.9218940734863281
1710737833203992300,33.05999243164062,0.03744196891784668,-0.17865228652954102,3.544133186340332
1710737833261877500,33.11787744140625,-1.8959870338439941,0.6302757263183594,1.7509284019470215
1710737833319762700,33.1757626953125,-0.0960317850112915,3.5790231227874756,-0.8966240882873535
1710737833377647900,33.23364794921875,-0.45617425441741943,4.567326545715332,-2.2383933067321777
1710737833435533000,33.29153295898438,-1.1904551982879639,3.249763250350952,-0.8625121116638184
1710737833493418200,33.349418212890626,-1.1152422428131104,0.6214771270751953,2.0240626335144043
1710737833551303400,33.407303466796876,-0.20548152923583984,-1.5482802391052246,4.152570724487305
1710737833609188600,33.465188720703125,-0.48796820640563965,-2.6709766387939453,4.747426509857178
1710737833667073800,33.52307373046875,1.0487416982650757,-0.1997227668762207,2.0292983055114746
1710737833724959000,33.580958984375,0.9491459131240845,-0.18975591659545898,2.7274184226989746
1710737833782844200,33.63884423828125,0.6471940279006958,-0.7048630714416504,1.0527124404907227
1710737833840729300,33.69672924804688,1.7232627868652344,1.9746339321136475,-1.1657352447509766
1710737833898614500,33.75461450195313,0.9072989225387573,1.850968599319458,-2.419743061065674
1710737833956499700,33.81249975585938,-0.14029037952423096,-0.1731276512145996,-3.2703604698181152
1710737834014385000,33.87038500976563,-1.1631206274032593,-1.9326364994049072,-3.244105339050293
1710737834072270000,33.92827001953125,0.1906987428665161,-3.1893365383148193,-1.6737580299377441
1710737834130155300,33.9861552734375,1.0782591104507446,-3.6068227291107178,-0.5065994262695312
1710737834188040400,34.04404052734375,-0.5061440467834473,-4.78190803527832,0.22177505493164062
1710737834245925600,34.10192553710937,1.40228271484375,-0.4056825637817383,-0.4373769760131836
1710737834303810800,34.15981079101562,-0.978059709072113,-1.896949291229248,1.286524772644043
1710737834361696000,34.21769604492187,-1.584831714630127,1.673323392868042,-1.0171699523925781
1710737834419581200,34.27558129882812,-0.5407302975654602,3.3617446422576904,-2.459170341491699
1710737834477466400,34.33346630859375,-1.0237517356872559,3.6440088748931885,-2.0929784774780273
1710737834535351600,34.3913515625,-1.1037193536758423,1.8990187644958496,0.45423126220703125
1710737834593236700,34.44923681640625,-0.39383774995803833,-0.3659048080444336,3.1274991035461426
1710737834651121700,34.50712158203125,0.09851598739624023,-1.939542293548584,6.224396705627441
1710737834709006800,34.5650068359375,0.47172999382019043,-1.057203769683838,5.229950428009033
1710737834766892000,34.62289208984375,0.6916402578353882,1.3053150177001953,4.234597682952881
1710737834824777200,34.68077709960937,-0.15368777513504028,-0.46635007858276367,2.6793599128723145
1710737834882662400,34.73866235351562,1.4449154138565063,0.8192234039306641,-0.5537729263305664
1710737834940547600,34.79654760742188,0.47970497608184814,1.3829655647277832,-2.879790782928467
1710737834998432800,34.85443286132813,-0.9722180962562561,0.32172203063964844,-4.1741414070129395
1710737835056318000,34.91231787109375,-0.9094252586364746,-1.730461597442627,-3.6793289184570312
1710737835114203100,34.970203125,-0.18505489826202393,-3.8183019161224365,-2.5362625122070312
1710737835172088300,35.02808837890625,0.8283747434616089,-4.385645866394043,-0.33584022521972656
1710737835229973500,35.085973388671874,-0.2810665965080261,-5.602561950683594,0.8351278305053711
1710737835287858700,35.143858642578124,2.012601852416992,-0.47191905975341797,-0.2694425582885742
1710737835345743600,35.20174365234375,-0.26146167516708374,-1.2410740852355957,3.4057254791259766
1710737835403628800,35.25962890625,-2.300010919570923,2.4199299812316895,0.0018162727355957031
1710737835461514000,35.31751391601563,-0.2241894006729126,3.741403579711914,-2.789947032928467
1710737835519399200,35.37539916992188,-0.783859372138977,3.5991203784942627,-3.3417725563049316
1710737835577284400,35.43328442382813,-1.4366371631622314,1.547314167022705,-0.39586687088012695
1710737835635169500,35.49116943359375,-1.7163605690002441,-0.5520610809326172,3.2159790992736816
1710737835693054700,35.5490546875,-0.7120298147201538,-1.8068275451660156,5.194312572479248
1710737835750939600,35.606939697265624,-0.3007239103317261,-1.638176441192627,5.002533912658691
1710737835808824800,35.66482495117187,1.115533709526062,0.9216737747192383,3.9743142127990723
1710737835866710000,35.7227099609375,0.5630322694778442,-0.8137707710266113,2.789109706878662
1710737835924595200,35.78059521484375,2.022167444229126,1.1116013526916504,-0.6260576248168945
1710737835982480400,35.83848046875,1.3984538316726685,1.9886589050292969,-2.5938167572021484
1710737836040365600,35.89636547851563,-0.4691058397293091,0.9537961483001709,-4.233176231384277
1710737836098250800,35.954250732421876,-0.7220708727836609,-1.209001064300537,-3.766489028930664
1710737836156135700,36.0121357421875,-0.15485596656799316,-3.176731586456299,-2.7723917961120605
1710737836214020900,36.07002075195312,1.056351661682129,-4.7882843017578125,-0.7612791061401367
1710737836271906000,36.12790600585937,0.42636656761169434,-4.843316078186035,0.572810173034668
1710737836329791200,36.18579125976562,1.3446080684661865,-0.27333831787109375,-1.469954013824463
1710737836387676400,36.24367651367187,0.6382805109024048,-2.1315784454345703,3.4772586822509766
1710737836445561300,36.30156127929688,-1.6200344562530518,1.4919586181640625,0.6942739486694336
1710737836503446500,36.359446533203126,-1.0676562786102295,3.851733446121216,-1.240250587463379
1710737836561331700,36.417331787109376,-2.529684543609619,4.134145736694336,-2.3059983253479004
1710737836619217000,36.475216796875,-2.288301944732666,2.43941068649292,-0.7428312301635742
1710737836677102000,36.53310205078125,-1.1728510856628418,-0.15369176864624023,2.5159106254577637
1710737836734987000,36.59098706054687,-0.7176095247268677,-1.5651626586914062,4.614457130432129
1710737836792872200,36.6488720703125,0.1549513339996338,-2.5143017768859863,5.132124423980713
1710737836850757400,36.70675732421875,2.393265724182129,0.928840160369873,2.874575138092041
1710737836908642600,36.764642578125,0.8998482823371887,-1.585007667541504,4.037631511688232
1710737836966527700,36.82252783203125,1.3135344982147217,0.8397717475891113,0.7237143516540527
1710737837024412700,36.88041259765625,0.6887969970703125,2.2361948490142822,-2.448647975921631
1710737837082297900,36.9382978515625,-1.026892900466919,1.4284255504608154,-4.452744007110596
1710737837140183000,36.99618310546875,-1.1389964818954468,-0.4838094711303711,-4.106858730316162
1710737837198068200,37.05406811523437,-0.19117844104766846,-2.770359516143799,-2.7856040000915527
1710737837255953200,37.111953125,0.9649108052253723,-4.3013458251953125,-0.12424564361572266
1710737837313838300,37.16983837890625,0.15346240997314453,-4.508749485015869,0.5679340362548828
1710737837371723500,37.2277236328125,0.20590972900390625,-1.4883804321289062,-1.2131223678588867
1710737837429608700,37.285608642578126,0.14097321033477783,-2.8273611068725586,4.508647918701172
1710737837487494000,37.343493896484375,-1.6649200916290283,-0.37791919708251953,0.5506372451782227
1710737837545378800,37.40137890625,-1.0396525859832764,2.7116165161132812,-3.1800966262817383
1710737837603264000,37.45926391601562,-1.898062825202942,3.6125335693359375,-4.399691581726074
1710737837661149200,37.51714916992187,-2.0615458488464355,2.0154902935028076,-3.0345358848571777
1710737837719034000,37.5750341796875,-0.7876512408256531,0.15746402740478516,0.528162956237793
1710737837776919300,37.632919189453126,0.034540772438049316,-1.8271722793579102,4.388185501098633
1710737837834804500,37.690804443359376,0.7800781726837158,-3.1575632095336914,6.30667781829834
1710737837892689700,37.748689697265625,2.725062847137451,1.5808601379394531,3.8412604331970215
1710737837950574600,37.80657470703125,0.0836382508277893,-0.0759739875793457,4.961885929107666
1710737838008459800,37.86445971679687,0.7561229467391968,0.791874885559082,1.6187996864318848
1710737838066345000,37.92234497070312,0.3071024417877197,3.2092132568359375,-1.4404082298278809
1710737838124230100,37.98023022460937,-0.9247803092002869,2.6069090366363525,-3.2712793350219727
1710737838182115000,38.03811499023438,-1.3052114248275757,-0.1846635341644287,-2.789236068725586
1710737838240000300,38.096000244140626,0.2653385400772095,-2.8231449127197266,-2.7041678428649902
1710737838297885400,38.153885498046876,1.3617956638336182,-5.088481426239014,0.4629831314086914
1710737838355770400,38.21177026367187,0.8245465159416199,-3.734849691390991,-0.014226913452148438
1710737838413655600,38.26965551757812,-0.3226322531700134,-3.9474616050720215,-0.17665481567382812
1710737838471540700,38.32754077148437,0.6025817394256592,-0.8906035423278809,0.4668560028076172
1710737838529426000,38.38542602539062,-1.5166370868682861,-0.9043116569519043,0.35638427734375
1710737838587310800,38.44331079101563,0.19661009311676025,2.3640854358673096,-1.0143980979919434
1710737838645196000,38.501196044921876,-1.4545177221298218,4.228580474853516,-1.5288877487182617
1710737838703081200,38.559081298828126,-2.298253297805786,3.8062264919281006,-1.077171802520752
1710737838760966100,38.61696606445312,-1.5480632781982422,1.7160820960998535,0.8675704002380371
1710737838818851300,38.67485131835937,-0.6827089190483093,-1.322927474975586,3.9148268699645996
1710737838876736500,38.73273657226562,0.06765162944793701,-1.3465118408203125,4.5164971351623535
1710737838934621700,38.79062158203125,0.6122933626174927,-0.03850364685058594,3.8048267364501953
1710737838992506600,38.84850659179688,0.7868349552154541,0.23022890090942383,4.378284931182861
1710737839050391800,38.906391845703126,1.3892450332641602,-1.4079265594482422,2.2199792861938477
1710737839108277000,38.964277099609376,2.1361968517303467,1.090996265411377,-0.901092529296875
1710737839166162000,39.022161865234374,0.6255797147750854,1.003582239151001,-3.3980207443237305
1710737839224047000,39.08004711914062,-0.40653252601623535,-0.49713635444641113,-4.797932147979736
1710737839281932300,39.13793237304687,-0.8865388631820679,-2.40676212310791,-3.746307849884033
1710737839339817200,39.19581713867188,-0.7712046504020691,-4.043675422668457,-2.8063864707946777
1710737839397702400,39.25370239257813,0.38923466205596924,-4.016496181488037,-0.9904136657714844
1710737839455587600,39.31158764648438,-0.37525421380996704,-5.337135314941406,1.742074966430664
1710737839513472500,39.369472412109374,1.7027029991149902,0.20415449142456055,0.19574260711669922
1710737839571357700,39.427357666015624,-0.2574637532234192,-1.1003022193908691,4.206295013427734
1710737839629243000,39.48524291992187,-0.8673716187477112,2.0798332691192627,0.4753727912902832
1710737839687128000,39.54312817382812,0.6841552257537842,3.5519347190856934,-2.3635950088500977
1710737839745013000,39.60101293945313,-0.6287753582000732,3.6276063919067383,-3.329019069671631
1710737839802898200,39.65889819335938,-1.1014435291290283,1.9352269172668457,-0.967219352722168
1710737839860783000,39.716783203125,-2.0447888374328613,-0.04934549331665039,2.481999397277832
1710737839918668300,39.774668212890624,-1.2129088640213013,-1.3372039794921875,5.2028584480285645
1710737839976553500,39.832553466796874,-0.3126654624938965,-1.824141025543213,4.833763599395752
1710737840034438400,39.8904384765625,1.2366256713867188,0.5136923789978027,3.442927837371826
1710737840092323600,39.94832348632813,1.0594446659088135,-1.0093998908996582,4.308738708496094
1710737840150208500,40.00620849609375,1.5349212884902954,-0.36501598358154297,1.0825085639953613
1710737840208093700,40.06409375,1.3686251640319824,2.089601755142212,-1.8970427513122559
1710737840265979000,40.121978759765625,-0.19968676567077637,1.028080940246582,-3.587160587310791
1710737840323863800,40.17986376953125,-0.7934003472328186,-1.1449971199035645,-4.223474025726318
1710737840381749000,40.2377490234375,-0.34678012132644653,-3.059844493865967,-3.657142162322998
1710737840439634000,40.29563403320312,1.140887975692749,-4.491408348083496,-2.6018829345703125
1710737840497519000,40.35351904296875,1.6236658096313477,-2.88167405128479,-1.6305999755859375
1710737840555404300,40.411404296875,-0.34986335039138794,-3.1243391036987305,0.8206806182861328
1710737840613289200,40.469289306640626,1.3880666494369507,-1.2952113151550293,3.3138132095336914
1710737840671174400,40.52717431640625,-0.8985649347305298,-1.7161035537719727,3.6433353424072266
1710737840729059300,40.58505932617187,-0.8129438757896423,2.483217477798462,-0.9948906898498535
1710737840786944500,40.64294458007812,-1.5111777782440186,3.509868621826172,-3.1835246086120605
1710737840844829400,40.70082934570313,-2.590055465698242,3.0884337425231934,-2.9384875297546387
1710737840902714600,40.75871459960938,-1.6543207168579102,1.061342716217041,-0.6044001579284668
1710737840960599600,40.816599609375,-0.3294856548309326,-1.4248757362365723,3.744422435760498
1710737841018484700,40.874484619140624,-0.3013014793395996,-0.6245951652526855,5.024355411529541
1710737841076370000,40.93236987304687,0.14325428009033203,0.08818626403808594,3.8801379203796387
1710737841134254800,40.9902548828125,2.081312656402588,0.45652151107788086,3.798231601715088
1710737841192140000,41.04814013671875,1.1956571340560913,-1.4962725639343262,3.4987406730651855
1710737841250025000,41.10602490234375,0.3281325101852417,1.4471478462219238,-0.15927410125732422
1710737841307910100,41.16391015625,-0.350416898727417,2.031403064727783,-2.961526393890381
1710737841365795000,41.221795166015625,-0.6738185882568359,0.6741490364074707,-4.215075969696045
1710737841423680000,41.27967993164062,-0.9319550395011902,-1.5932750701904297,-3.8827695846557617
1710737841481565200,41.33756518554687,-0.3144015073776245,-3.029165267944336,-3.0188698768615723
1710737841539450000,41.3954501953125,2.5473251342773438,-2.891892910003662,-0.18502140045166016
1710737841597335300,41.453335205078126,-0.13599103689193726,-4.15867280960083,2.646883964538574
1710737841655220200,41.51122021484375,0.18026494979858398,-0.9559211730957031,0.5883922576904297
1710737841713105400,41.56910546875,-0.019330859184265137,-2.693479537963867,2.8920774459838867
1710737841770990300,41.626990234375,-1.6758501529693604,-0.2442917823791504,-1.1363720893859863
1710737841828875300,41.68487524414063,-1.124917984008789,2.3581621646881104,-3.2128615379333496
1710737841886760400,41.74276049804688,-1.6870018243789673,3.293376922607422,-3.3073678016662598
1710737841944645400,41.800645263671875,-1.4828355312347412,2.291628122329712,-2.2488961219787598
1710737842002530600,41.858530517578124,-1.1992712020874023,0.793792724609375,0.8314900398254395
1710737842060415500,41.91641552734375,-0.10120844841003418,-1.2417640686035156,4.324736595153809
1710737842118300400,41.97430053710937,0.3303964138031006,-1.653977870941162,6.019294261932373
1710737842176185600,42.032185546875,1.038632869720459,1.002873420715332,4.480593204498291
1710737842234070500,42.090070556640626,0.6835514307022095,0.3922405242919922,5.491460800170898
1710737842291955700,42.147955810546875,0.3599557876586914,-0.31804656982421875,2.9000606536865234
1710737842349840600,42.20584057617187,1.7906550168991089,1.485633373260498,-0.8850202560424805
1710737842407725600,42.2637255859375,0.5923974514007568,0.584200382232666,-3.101147174835205
1710737842465610800,42.32161083984375,-0.38903385400772095,-1.793139934539795,-3.6217212677001953
1710737842523495700,42.37949560546875,-0.8117040991783142,-3.710538387298584,-4.263406276702881
1710737842581380600,42.437380615234375,0.10611104965209961,-5.092249393463135,-3.5998072624206543
1710737842639265500,42.495265625,0.2971947193145752,-4.249990463256836,-2.5002522468566895
1710737842697150700,42.55315063476562,-1.2566365003585815,-5.314854621887207,-0.11646270751953125
1710737842755035600,42.61103564453125,1.0938100814819336,-3.0399956703186035,1.317108154296875
1710737842812920600,42.668920654296876,0.038880228996276855,-2.2938666343688965,3.6138830184936523
1710737842870805800,42.7268056640625,-1.948293685913086,2.431575298309326,0.1752305030822754
1710737842928690700,42.78469067382812,-1.248317837715149,4.508420944213867,-2.077151298522949
1710737842986575600,42.84257568359375,-0.6321815848350525,4.1829938888549805,-2.5678186416625977
1710737843044460500,42.90046044921875,1.133122444152832,2.4808411598205566,-0.40171003341674805
1710737843102345700,42.958345703125,1.8246709108352661,1.0893054008483887,1.8502087593078613
1710737843160230700,43.016230712890625,2.7593460083007812,-0.0005922317504882812,4.768945217132568
1710737843218115600,43.07411547851562,1.1740195751190186,0.4625120162963867,6.796146869659424
1710737843276000800,43.13200073242187,-0.024199247360229492,2.338982105255127,5.525718688964844
1710737843333885700,43.1898857421875,-0.5485628247261047,0.05540895462036133,5.173257350921631
1710737843391770600,43.2477705078125,-0.5673978924751282,-1.1517753601074219,1.847607135772705
1710737843449655600,43.305655517578124,0.40840232372283936,2.4132943153381348,-1.3582978248596191
1710737843507540500,43.36354052734375,2.342620372772217,2.351616144180298,-2.324737071990967
1710737843565425700,43.42142578125,3.2967467308044434,0.10684061050415039,-2.6205763816833496
1710737843623310600,43.479310546875,0.9467896819114685,-1.8713040351867676,-3.094668388366699
1710737843681195500,43.537195556640626,0.4473605155944824,-3.447772264480591,-0.9356803894042969
1710737843739080400,43.59508056640625,-0.41308921575546265,-3.57090425491333,-1.7071280479431152
1710737843796965400,43.65296533203125,-0.28158730268478394,-6.103320598602295,1.1082067489624023
1710737843854850600,43.7108505859375,1.7400946617126465,-3.2179574966430664,0.9601898193359375
1710737843912735500,43.76873559570313,-1.2327696084976196,-2.953533172607422,0.4492969512939453
1710737843970620400,43.826620361328125,-0.14585769176483154,1.1938772201538086,-1.9811201095581055
1710737844028505300,43.88450537109375,-2.410355806350708,3.3395698070526123,-3.1639904975891113
1710737844086390300,43.94239038085937,-2.1505393981933594,3.428166627883911,-2.9849610328674316
1710737844144275500,44.000275390625,-0.7704595327377319,1.3207836151123047,0.2213587760925293
1710737844202160400,44.058160400390626,-0.12380433082580566,0.25394630432128906,3.1859030723571777
1710737844260045300,44.11604541015625,0.21731948852539062,-0.3291306495666504,4.864180564880371
1710737844317930200,44.17393017578125,-0.28344643115997314,-1.3502230644226074,5.341338634490967
1710737844375815200,44.23181518554688,1.9624388217926025,-0.46135711669921875,3.5962576866149902
1710737844433700000,44.2897001953125,1.1876981258392334,-3.088564395904541,3.8853139877319336
1710737844491585000,44.3475849609375,0.6952351331710815,1.3443121910095215,-0.8531651496887207
1710737844549470000,44.40546997070312,0.1439000368118286,3.526712417602539,-3.272000789642334
1710737844607355100,44.46335522460937,-0.9680251479148865,1.932152509689331,-4.4268107414245605
1710737844665240000,44.52123999023438,-0.6781871318817139,-0.8013591766357422,-3.8821654319763184
1710737844723125000,44.579125,0.7678276300430298,-2.3549704551696777,-2.1403441429138184
1710737844781010000,44.637010009765625,1.4459764957427979,-4.030182361602783,0.13470745086669922
1710737844838894800,44.69489477539062,0.36187899112701416,-4.456765174865723,0.494720458984375
1710737844896779800,44.75277978515625,0.9620497226715088,-1.8736577033996582,-1.1167006492614746
1710737844954664700,44.81066479492188,1.215523600578308,-3.4947452545166016,4.698483467102051
1710737845012549600,44.868549560546874,-0.47076261043548584,0.9630279541015625,1.5403203964233398
1710737845070434800,44.926434814453124,-1.1544976234436035,4.005328178405762,-2.7171711921691895
1710737845128319700,44.98431982421875,-2.2632834911346436,5.2932915687561035,-3.911966323852539
1710737845186204700,45.04220458984375,-1.4005812406539917,3.3914527893066406,-1.8225574493408203
1710737845244089600,45.100089599609376,-1.8404953479766846,0.03149700164794922,1.744664192199707
1710737845301974500,45.157974609375,-0.74632728099823,-1.4450392723083496,4.3292646408081055
1710737845359859500,45.215859375,-1.280722975730896,-2.1420159339904785,5.594771385192871
1710737845417744400,45.27374438476563,0.9880338907241821,-1.0375738143920898,3.492276191711426
1710737845475629300,45.33162939453125,2.6031203269958496,-1.6417040824890137,4.323079586029053
1710737845533514200,45.38951416015625,1.9725141525268555,-0.41059255599975586,0.8720297813415527
1710737845591399200,45.44739916992187,2.2059519290924072,2.7690374851226807,-2.0919079780578613
1710737845649284000,45.5052841796875,-0.38421523571014404,1.962996006011963,-4.167654037475586
1710737845707169000,45.5631689453125,-1.6165761947631836,0.6953825950622559,-4.0175676345825195
1710737845765054200,45.62105419921875,-1.4241557121276855,-1.3501224517822266,-2.969940662384033
1710737845822939100,45.678939208984374,-0.8602361679077148,-3.3516221046447754,-1.8492131233215332
1710737845880824000,45.73682397460937,0.8143419027328491,-3.3669791221618652,-0.6412739753723145
1710737845938709000,45.794708984375,0.5961616039276123,-3.8041892051696777,-0.19077253341674805
1710737845996594000,45.852593994140626,1.6031110286712646,-3.5604753494262695,5.101982116699219
1710737846054478800,45.910478759765624,-0.8190900087356567,-0.036930084228515625,1.3089275360107422
1710737846112363800,45.96836376953125,-0.17623555660247803,3.5979974269866943,-1.4751248359680176
1710737846170248700,46.02624877929688,-3.018296718597412,4.8555803298950195,-2.9373719692230225
1710737846228133600,46.084133544921876,-2.602471351623535,3.856260061264038,-2.415482521057129
1710737846286018600,46.1420185546875,-2.4136459827423096,1.0312700271606445,0.8496499061584473
1710737846343903500,46.19990356445312,-1.313970923423767,-1.566502571105957,5.080636978149414
1710737846401788400,46.25778833007813,1.042771339416504,-1.763965129852295,5.744112968444824
1710737846459673300,46.31567333984375,1.6491258144378662,-0.14531898498535156,3.259835720062256
1710737846517558300,46.373558349609375,1.6069282293319702,-2.129624843597412,4.952918529510498
1710737846575443200,46.43144311523437,1.6319078207015991,-1.5586695671081543,1.8098173141479492
1710737846633328000,46.489328125,1.584187388420105,1.2944769859313965,-1.9639153480529785
1710737846691213000,46.54721313476563,-0.31349074840545654,1.1068446636199951,-4.800459861755371
1710737846749098000,46.605097900390625,0.09057444334030151,-0.7013335227966309,-5.219080924987793
1710737846806983000,46.66298291015625,0.20747554302215576,-2.5135343074798584,-4.540441513061523
1710737846864867800,46.72086791992187,-0.9301873445510864,-3.875053644180298,-3.214935779571533
1710737846922752800,46.77875268554688,0.3329352140426636,-3.616180419921875,-1.4035391807556152
1710737846980637700,46.8366376953125,-0.31155282258987427,-4.457147598266602,1.7460699081420898
1710737847038522600,46.894522705078124,1.024550199508667,-2.849846839904785,5.029646873474121
1710737847096407600,46.95240747070312,-1.1179733276367188,-0.051067352294921875,2.5869903564453125
1710737847154292500,47.01029248046875,-0.3349730968475342,3.7069807052612305,-1.078455924987793
1710737847212177400,47.068177490234376,-0.5370672941207886,4.7419514656066895,-2.7023253440856934
1710737847270062600,47.1260625,-1.7722057104110718,4.480483055114746,-1.7676405906677246
1710737847327947300,47.183947265625,-2.3332345485687256,1.7764973640441895,0.3705940246582031
1710737847385832200,47.24183227539063,-0.1260770559310913,-1.1054086685180664,3.2504329681396484
1710737847443717400,47.29971728515625,0.2910376787185669,-0.9189367294311523,5.303465366363525
1710737847501602000,47.35760205078125,0.2303001880645752,-2.053739070892334,6.195925712585449
1710737847559487000,47.41548706054687,1.4656375646591187,-2.7859954833984375,5.780817985534668
1710737847617372200,47.4733720703125,0.6098120808601379,-0.20531749725341797,0.17146778106689453
1710737847675256800,47.5312568359375,0.7962746620178223,3.361240863800049,-4.145303249359131
1710737847733142000,47.58914208984375,-0.11561346054077148,2.724287509918213,-5.687644004821777
1710737847791026700,47.64702661132812,-0.3109334707260132,-0.0002722740173339844,-3.8141303062438965
1710737847848911600,47.70491162109375,0.6955990791320801,-2.104898452758789,-1.1743888854980469
1710737847906796800,47.762796875,1.012262225151062,-4.16328239440918,0.6330032348632812
1710737847964681500,47.820681396484375,0.42809462547302246,-4.950197696685791,1.95635986328125
1710737848022566700,47.878566650390624,0.5071084499359131,-1.197998046875,-0.5738410949707031
1710737848080451300,47.93645141601562,0.7717450857162476,-1.9785337448120117,2.5989599227905273
1710737848138336300,47.99433618164063,-2.4359216690063477,-0.3809032440185547,-0.6330599784851074
1710737848196221400,48.052221435546876,-0.2199397087097168,2.4645349979400635,-3.4289422035217285
1710737848254106000,48.110106201171874,-1.2279679775238037,3.427767753601074,-3.807173252105713
1710737848311991000,48.16799096679687,-1.8912465572357178,2.434257984161377,-2.494142532348633
1710737848369876000,48.2258759765625,-1.5273442268371582,0.14647388458251953,0.46285486221313477
1710737848427761000,48.283760986328126,-0.4195502996444702,-0.9898242950439453,3.7169604301452637
1710737848485645800,48.34164575195312,0.054252028465270996,-1.9153528213500977,5.892160892486572
1710737848543530800,48.39953076171875,0.9376962184906006,0.13347434997558594,4.358458042144775
1710737848601415700,48.45741577148438,1.0090221166610718,0.5897030830383301,3.2235255241394043
1710737848659300600,48.515300537109376,0.5153052806854248,-0.7664370536804199,1.1001396179199219
1710737848717185500,48.573185546875,1.264954686164856,1.4430673122406006,-1.2431282997131348
1710737848775070500,48.63107055664062,-0.1192007064819336,1.66609787940979,-3.248711109161377
1710737848832955400,48.68895532226563,-0.4458314776420593,0.3492255210876465,-3.849916458129883
1710737848890840300,48.74684033203125,-0.7239181995391846,-1.2021501064300537,-2.9091391563415527
1710737848948725200,48.804725341796875,0.7370555400848389,-3.2758471965789795,-0.15854644775390625
1710737849006610200,48.86261010742187,1.129462718963623,-3.6721599102020264,1.785233497619629
1710737849064495000,48.9204951171875,0.3145131468772888,-3.3329079151153564,0.31788158416748047
1710737849122380000,48.97838012695313,0.6831275224685669,-2.150465965270996,1.886672019958496
1710737849180265000,49.036264892578124,-2.371739387512207,-1.0865883827209473,-0.5023469924926758
1710737849238150000,49.09414990234375,-0.8515008687973022,1.1073434352874756,-3.7696385383605957
1710737849296034800,49.15203491210937,-0.9633939862251282,2.7570297718048096,-3.6624526977539062
1710737849353919700,49.209919677734376,-1.2948331832885742,2.9503564834594727,-2.0404062271118164
1710737849411804700,49.2678046875,-1.3282448053359985,1.8152050971984863,0.3959321975708008
1710737849469689600,49.325689697265624,-0.25684404373168945,-0.056461334228515625,4.796807765960693
1710737849527574500,49.38357446289063,0.15289366245269775,-1.1079235076904297,6.348761081695557
1710737849585459500,49.44145947265625,0.5877480506896973,-1.0113582611083984,4.057755947113037
1710737849643344400,49.499344482421876,0.685966968536377,0.40120410919189453,2.198793888092041
1710737849701229300,49.55722924804687,-0.5136038064956665,-1.6868281364440918,1.3228106498718262
1710737849759114200,49.6151142578125,-0.22916781902313232,1.2767868041992188,-1.2091693878173828
1710737849816999200,49.67299926757813,-0.8227382302284241,2.81648325920105,-2.749654769897461
1710737849874884000,49.730884033203125,-0.3745713233947754,2.4219119548797607,-3.0973997116088867
1710737849932769000,49.78876904296875,0.27551567554473877,-0.11189985275268555,-1.8635601997375488
1710737849990654000,49.84665405273437,0.40948593616485596,-2.411424160003662,-0.07269096374511719
1710737850048539000,49.90453881835938,1.2544732093811035,-3.671943187713623,1.2082147598266602
1710737850106423800,49.962423828125,-0.007383227348327637,-4.380284786224365,1.5834360122680664
1710737850164308700,50.020308837890624,1.7887450456619263,0.07915878295898438,-1.228032112121582
1710737850222193700,50.07819360351562,-0.9285919070243835,-1.6694235801696777,1.967031478881836
1710737850280078300,50.13607836914063,-2.9779787063598633,0.49918699264526367,-1.858288288116455
1710737850337963500,50.193963623046876,-0.8653771281242371,2.109330892562866,-4.25223445892334
1710737850395848200,50.25184814453125,-1.2989614009857178,2.7143301963806152,-4.371234893798828
1710737850453733000,50.30973315429687,-0.7601721286773682,1.4968745708465576,-1.2961530685424805
1710737850511618000,50.3676181640625,-1.0867937803268433,0.22191381454467773,2.562732219696045
1710737850569503000,50.4255029296875,-0.16847777366638184,-1.2484688758850098,4.6691460609436035
1710737850627388000,50.483387939453124,0.2843620777130127,-3.6492700576782227,5.893786430358887
1710737850685272800,50.54127294921875,1.2840418815612793,0.36491870880126953,3.157505512237549
1710737850743157800,50.59915771484375,0.5784971714019775,-1.1652250289916992,1.5993456840515137
1710737850801042700,50.657042724609376,1.165636658668518,1.0042405128479004,-1.2728395462036133
1710737850858927600,50.714927734375,0.1515336036682129,3.003586530685425,-2.932065963745117
1710737850916812500,50.7728125,-1.407163381576538,3.180558204650879,-3.4148683547973633
1710737850974697500,50.83069750976563,-1.453705072402954,1.5018928050994873,-1.4065017700195312
1710737851032582400,50.88858251953125,-1.2316454648971558,-0.864163875579834,0.3648405075073242
1710737851090467300,50.94646728515625,1.6103860139846802,-3.7328906059265137,1.9982194900512695
1710737851148352300,51.00435229492187,1.7944804430007935,-3.139016628265381,2.15338134765625
1710737851206237200,51.0622373046875,0.9995409250259399,-0.8609108924865723,-0.41573572158813477
1710737851264122000,51.1201220703125,1.4022724628448486,-1.8801021575927734,1.8684773445129395
1710737851322006800,51.1780068359375,-0.9942352175712585,-1.3630003929138184,-1.4945216178894043
1710737851379892000,51.23589208984375,0.32678496837615967,1.3233985900878906,-4.65656852722168
1710737851437776600,51.29377661132813,-1.6523711681365967,2.483768939971924,-5.039852619171143
1710737851495661600,51.35166162109375,-1.8208034038543701,1.9285519123077393,-3.088832378387451
1710737851553546500,51.40954638671875,-1.7318096160888672,0.7244281768798828,2.8720622062683105
1710737851611431400,51.46743139648437,-0.1968848705291748,-1.5355396270751953,5.362977027893066
1710737851669316400,51.52531640625,0.7330238819122314,-1.766014575958252,5.448450088500977
1710737851727201300,51.583201171875,1.280735969543457,0.49951696395874023,1.3623642921447754
1710737851785086200,51.641086181640624,1.7425949573516846,-0.5287752151489258,2.260496139526367
1710737851842971100,51.69897119140625,-0.8540407419204712,-1.5368242263793945,1.878300666809082
1710737851900856000,51.75685595703125,0.1576673984527588,0.6491656303405762,-1.1993889808654785
1710737851958741000,51.814740966796876,0.28293609619140625,1.91646146774292,-3.9741673469543457
1710737852016626000,51.8726259765625,-0.8476650714874268,1.5208637714385986,-4.530511856079102
1710737852074510800,51.9305107421875,-1.6679902076721191,-0.5967416763305664,-3.571176052093506
1710737852132395500,51.9883955078125,-0.18294870853424072,-2.2701306343078613,-1.786959171295166
1710737852190280400,52.046280517578126,1.566051721572876,-4.392064571380615,2.0871505737304688
1710737852248165400,52.10416528320312,1.287077784538269,-3.925973415374756,3.058804512023926
1710737852306050300,52.16205029296875,1.7062716484069824,-0.0033283233642578125,0.30573368072509766
1710737852363935200,52.21993530273438,-0.5993956327438354,0.021728038787841797,2.1872267723083496
1710737852421820200,52.277820068359375,-1.875151515007019,0.6818733215332031,0.08588552474975586
1710737852479705000,52.335705078125,0.17095589637756348,2.6211798191070557,-3.493798017501831
1710737852537590000,52.39359008789062,-0.7261734008789062,3.646156072616577,-3.8107120990753174
1710737852595475000,52.45147485351563,-1.5017175674438477,2.8851916790008545,-1.7152009010314941
1710737852653359900,52.50935986328125,-1.5047950744628906,0.25396013259887695,1.8402490615844727
1710737852711244800,52.567244873046874,-1.094491720199585,-1.8467679023742676,3.4709091186523438
1710737852769129700,52.62512963867187,0.6120884418487549,-2.765441417694092,3.473074436187744
1710737852827014700,52.6830146484375,0.8557088375091553,-0.6271200180053711,2.9573559761047363
1710737852884899300,52.7408994140625,0.706924557685852,1.3551292419433594,3.9168639183044434
1710737852942784300,52.7987841796875,-0.4974440336227417,0.20395755767822266,2.7136569023132324
1710737853000669200,52.85666918945312,1.1796705722808838,1.4470958709716797,-1.0737934112548828
1710737853058554000,52.91455419921875,1.4127559661865234,1.9981348514556885,-2.893463134765625
1710737853116439000,52.97243896484375,-0.6727931499481201,0.8996045589447021,-3.248739719390869
1710737853174324000,53.030323974609374,-1.1304206848144531,-1.5206146240234375,-2.843611240386963
1710737853232209000,53.088208984375,-0.18225634098052979,-3.447723865509033,-2.0574021339416504
1710737853290093800,53.14609375,1.4891899824142456,-4.485064506530762,0.12050533294677734
1710737853347978800,53.203978759765626,1.0646790266036987,-4.479126453399658,1.165217399597168
1710737853405863700,53.26186376953125,1.5651309490203857,-0.2786221504211426,-1.4270415306091309
1710737853463748400,53.31974829101563,0.9878859519958496,-1.8266358375549316,2.7580575942993164
1710737853521633300,53.37763330078125,-1.9005299806594849,1.2124948501586914,-0.13052988052368164
1710737853579518200,53.435518310546875,-1.4159619808197021,3.0584163665771484,-2.654916286468506
1710737853637403100,53.49340307617187,-2.320535898208618,3.768643856048584,-2.9373321533203125
1710737853695288000,53.5512880859375,-2.5383529663085938,2.0218920707702637,-0.9853439331054688
1710737853753173000,53.60917309570313,-1.1540024280548096,-0.4088325500488281,1.8292341232299805
1710737853811058000,53.667057861328125,-0.29902398586273193,-2.0998849868774414,4.730278015136719
1710737853868942800,53.72494287109375,-0.014667749404907227,-2.773531913757324,5.537174224853516
1710737853926827800,53.78282788085937,1.791894555091858,1.0536165237426758,3.256629467010498
1710737853984712400,53.84071240234375,0.7515116930007935,0.16657209396362305,2.5646185874938965
1710737854042597400,53.898597412109375,0.6895681619644165,0.3347444534301758,-0.32686948776245117
1710737854100482300,53.956482421875,1.600290298461914,1.6154863834381104,-2.3051095008850098
1710737854158367200,54.0143671875,0.07967054843902588,1.6282222270965576,-3.640251636505127
1710737854216252200,54.07225219726563,-1.0739824771881104,0.1308574676513672,-2.901425838470459
1710737854274137000,54.13013720703125,-1.1723065376281738,-1.699561595916748,-2.662468433380127
1710737854332022000,54.18802197265625,0.7238597869873047,-3.8644652366638184,0.0137939453125
1710737854389907000,54.24590698242187,0.5245088338851929,-4.151144027709961,0.8658714294433594
1710737854447791900,54.3037919921875,0.5642518997192383,-2.182046890258789,-0.7323317527770996
1710737854505676800,54.3616767578125,0.6291325092315674,-2.0990519523620605,3.5444698333740234
1710737854563561500,54.4195615234375,-2.7163262367248535,-0.006188392639160156,0.012698173522949219
1710737854621446400,54.4774462890625,-0.9930992722511292,2.202808141708374,-3.5977349281311035
1710737854679331300,54.535331298828126,-1.4227625131607056,3.156160354614258,-4.325944900512695
1710737854737216300,54.59321630859375,-1.3353257179260254,2.340843915939331,-2.4041786193847656
1710737854795101200,54.65110107421875,-1.1154534816741943,0.21000909805297852,0.9290299415588379
1710737854852986000,54.70898608398438,-0.5627232789993286,-1.626518726348877,4.3665266036987305
1710737854910871000,54.76687109375,0.28240466117858887,-2.5131301879882812,5.355693817138672
1710737854968756000,54.824755859375,0.9800882339477539,1.0800981521606445,3.294022560119629
1710737855026640600,54.882640625,-0.428791880607605,1.2734951972961426,5.359884262084961
1710737855084525600,54.94052563476563,0.062473416328430176,0.46450090408325195,2.3715243339538574
1710737855142410500,54.998410400390625,1.6700553894042969,2.5001590251922607,-0.7953381538391113
1710737855200295400,55.05629541015625,-0.7028286457061768,2.049072027206421,-2.5652170181274414
1710737855258180400,55.11418041992187,-1.381852388381958,0.14063024520874023,-2.953462600708008
1710737855316065300,55.17206518554688,-0.7598421573638916,-2.0571091175079346,-2.264432430267334
1710737855373950200,55.2299501953125,0.8469743728637695,-4.218684673309326,-0.7762422561645508
1710737855431835100,55.287835205078125,1.6720991134643555,-5.098393440246582,0.6077480316162109
1710737855489720000,55.34571997070312,1.6770538091659546,-3.318370819091797,-1.1597676277160645
1710737855547604700,55.40360473632813,2.12632417678833,-2.4467482566833496,2.067352294921875
1710737855605489700,55.46148974609375,-2.758430242538452,-0.5219969749450684,-0.34081459045410156
1710737855663374600,55.51937451171875,-1.9951536655426025,2.1572299003601074,-2.9411940574645996
1710737855721259500,55.57725952148437,-1.7066854238510132,3.5305464267730713,-3.0591444969177246
1710737855779144400,55.63514453125,-2.0873701572418213,3.101916551589966,-1.419297695159912
1710737855837029400,55.693029296875,-1.7533020973205566,0.8465356826782227,1.3066186904907227
1710737855894914300,55.750914306640624,-0.856093168258667,-0.09087610244750977,3.5683016777038574
1710737855952799200,55.80879931640625,-0.6644964218139648,-1.4780564308166504,5.422677993774414
1710737856010684000,55.866683837890626,0.39086222648620605,-0.9349393844604492,4.683838844299316
1710737856068569000,55.924569091796876,1.360425591468811,1.2100977897644043,4.431745529174805
1710737856126453800,55.98245385742187,0.15693074464797974,-0.9055080413818359,2.653298854827881
1710737856184338700,56.04033862304688,1.9741493463516235,0.8571381568908691,-1.1952548027038574
1710737856242223600,56.0982236328125,1.8228724002838135,1.4413659572601318,-3.0457863807678223
1710737856300108500,56.156108642578126,0.06967532634735107,0.7915999889373779,-4.3738274574279785
1710737856357993500,56.21399340820312,-0.4139854311943054,-1.0976853370666504,-3.671527862548828
1710737856415878400,56.27187841796875,-0.00006937980651855469,-3.085937261581421,-2.538926124572754
1710737856473763300,56.32976342773438,1.4993246793746948,-4.131720066070557,-0.2010354995727539
1710737856531648300,56.387648193359375,0.8779851794242859,-4.336149215698242,0.6610374450683594
1710737856589533000,56.44553295898437,1.322498083114624,-1.0047173500061035,-1.134934902191162
1710737856647417900,56.50341796875,1.1155586242675781,-2.2419090270996094,3.829439163208008
1710737856705302800,56.561302734375,-2.7792396545410156,0.902130126953125,-0.4021010398864746
1710737856763187700,56.619187744140625,-1.4562134742736816,3.040841817855835,-2.0011510848999023
1710737856821072600,56.67707275390625,-1.4606544971466064,3.947683572769165,-1.6432323455810547
1710737856878957600,56.73495751953125,-2.4267489910125732,2.793821096420288,0.14255380630493164
1710737856936842500,56.79284252929688,-2.0068416595458984,0.9198861122131348,2.1916441917419434
1710737856994727400,56.8507275390625,-0.23539185523986816,-1.6110448837280273,4.518517971038818
1710737857052612400,56.9086123046875,0.5196782350540161,-2.2080702781677246,4.852198123931885
1710737857110497300,56.96649731445312,2.024095058441162,0.40712738037109375,2.722029209136963
1710737857168382200,57.02438232421875,1.0112338066101074,-0.5171685218811035,4.2370758056640625
1710737857226267000,57.082266845703124,0.7156115770339966,-0.9154586791992188,2.0143184661865234
1710737857284151800,57.14015185546875,1.398755669593811,1.616546869277954,-1.4421496391296387
1710737857342036700,57.19803662109375,0.2228177785873413,1.4365930557250977,-3.256840229034424
1710737857399921700,57.255921630859376,-1.1466859579086304,-0.8154604434967041,-4.670273303985596
1710737857457806600,57.313806640625,-0.2847514748573303,-2.559650421142578,-3.993588447570801
1710737857515691500,57.37169140625,2.2200546264648438,-3.687856912612915,0.05845069885253906
1710737857573576400,57.42957641601563,-1.0047105550765991,-3.743631362915039,-1.2605571746826172
1710737857631461400,57.48746142578125,0.3854520320892334,-4.36888313293457,-0.9348363876342773
1710737857689346300,57.54534619140625,1.545485258102417,-1.3665504455566406,1.1835384368896484
1710737857747231200,57.60323120117187,-2.1980955600738525,-1.2853870391845703,1.1725378036499023
1710737857805116200,57.6611162109375,-1.6691057682037354,2.2570173740386963,-1.1496648788452148
1710737857863000800,57.719000732421875,-1.4770394563674927,3.447343111038208,-2.9026694297790527
1710737857920885800,57.7768857421875,-0.846417248249054,3.0260114669799805,-2.4130325317382812
1710737857978770700,57.83477075195312,-0.9894968867301941,1.4783124923706055,0.04210710525512695
1710737858036655600,57.89265551757813,-0.17289280891418457,-0.2051849365234375,3.94537353515625
1710737858094540500,57.95054052734375,0.768468976020813,-2.3442234992980957,7.703596591949463
1710737858152425500,58.008425537109375,1.0331701040267944,-0.675715446472168,6.324953079223633
1710737858210310400,58.06631030273437,0.7131747007369995,0.20429229736328125,4.545301914215088
1710737858268195300,58.1241953125,0.5698118209838867,-1.2770256996154785,0.14604663848876953
1710737858326080300,58.18208032226563,2.1676042079925537,1.2284417152404785,-2.9360666275024414
1710737858383965200,58.239965087890624,1.0711374282836914,1.7762386798858643,-4.207061290740967
1710737858441850000,58.29785009765625,-0.7294712662696838,0.9070127010345459,-4.608001232147217
1710737858499735000,58.35573510742187,-0.9672739505767822,-1.9112207889556885,-3.2274699211120605
1710737858557620000,58.413619873046876,0.46393460035324097,-3.674020290374756,-1.1783032417297363
1710737858615504600,58.471504638671874,1.9750500917434692,-4.639974594116211,1.197627067565918
1710737858673389800,58.52938989257812,0.6325544714927673,-4.059342861175537,0.7567625045776367
1710737858731274500,58.5872744140625,1.2344058752059937,-0.2234344482421875,-2.0116829872131348
1710737858789159400,58.645159423828126,0.1565016508102417,-1.5456547737121582,2.0994515419006348
1710737858847044400,58.70304443359375,-1.937518835067749,1.398350715637207,-0.2475433349609375
1710737858904929300,58.76092919921875,-0.060412049293518066,3.511242628097534,-1.7392067909240723
1710737858962814200,58.81881420898438,-1.0351896286010742,3.949155569076538,-2.2249574661254883
1710737859020699100,58.87669921875,-1.3567862510681152,2.449643611907959,-0.0415339469909668
1710737859078584000,58.934583984375,-1.0491995811462402,1.0398826599121094,3.3966522216796875
1710737859136469000,58.99246899414062,0.22459208965301514,-0.9865427017211914,5.454293727874756
1710737859194354000,59.05035400390625,-0.2856752872467041,-2.2319679260253906,4.080638885498047
1710737859252238800,59.10823876953125,0.9826821088790894,0.5588598251342773,2.0825371742248535
1710737859310123800,59.166123779296875,-0.3284517526626587,-1.4581313133239746,3.2976884841918945
1710737859368008700,59.2240087890625,-0.5161577463150024,-0.7705154418945312,0.0896596908569336
1710737859425893600,59.2818935546875,1.115585207939148,1.209258794784546,-2.3005356788635254
1710737859483778600,59.33977856445313,-0.0006412267684936523,0.9919929504394531,-4.150331020355225
1710737859541663500,59.39766357421875,-0.6837735772132874,-0.24122071266174316,-4.153170585632324
1710737859599548400,59.45554833984375,-0.5487087368965149,-1.7047398090362549,-3.0759220123291016
1710737859657433300,59.51343334960937,0.6525622606277466,-3.467132806777954,-1.2158293724060059
1710737859715318300,59.571318359375,1.3465301990509033,-3.828831195831299,1.1557531356811523
1710737859773203200,59.629203125,0.915948212146759,-3.655198097229004,1.8875732421875
1710737859831087900,59.687087890625,2.194315195083618,-0.744532585144043,3.253119468688965
1710737859888973000,59.74497314453125,-2.498049020767212,0.6814122200012207,1.2179994583129883
1710737859946857700,59.802857666015626,-1.6917616128921509,2.687152147293091,-2.5509700775146484
1710737860004742700,59.86074267578125,-0.621401309967041,3.3106606006622314,-3.2024741172790527
1710737860062627600,59.91862768554687,-1.7802083492279053,2.4982998371124268,-2.2546935081481934
1710737860120512500,59.97651245117188,-1.7927346229553223,0.5022764205932617,0.7234282493591309
1710737860178397400,60.0343974609375,-1.4991192817687988,-0.588984489440918,2.6151766777038574
1710737860236282400,60.092282470703125,-0.838760495185852,-1.0258102416992188,4.363986492156982
1710737860294167300,60.15016723632812,-0.3418715000152588,-1.5595588684082031,4.638132572174072
1710737860352052200,60.20805224609375,1.1013994216918945,0.9441318511962891,3.6460394859313965
1710737860409937200,60.26593725585938,-0.19397413730621338,-1.6696252822875977,3.8015146255493164
1710737860467822000,60.323822021484375,0.733240008354187,-0.18104887008666992,-0.170440673828125
1710737860525707000,60.38170703125,0.9801924228668213,1.821446418762207,-2.9948248863220215
1710737860583592000,60.43959204101562,-0.7737478017807007,1.406266450881958,-4.4940595626831055
1710737860641476900,60.49747680664063,-0.6442100405693054,-0.09956550598144531,-3.3388876914978027
1710737860699361800,60.55536181640625,-0.7376174926757812,-2.122347831726074,-2.4538655281066895
1710737860757246700,60.613246826171874,0.17532706260681152,-4.502039909362793,-0.6145591735839844
1710737860815131600,60.67113159179687,-0.4161427319049835,-6.436235427856445,1.4760513305664062
1710737860873016600,60.7290166015625,2.3008008003234863,-1.8268494606018066,-0.20116949081420898
1710737860930901500,60.786901611328126,-1.2081648111343384,-1.230147361755371,2.6584038734436035
1710737860988786400,60.844786376953124,-1.8265295028686523,1.6410198211669922,-0.5128998756408691
1710737861046671400,60.90267138671875,0.28305935859680176,3.2524449825286865,-3.6496479511260986
1710737861104556300,60.96055639648438,-0.7201433777809143,3.684098482131958,-3.3894691467285156
1710737861162441200,61.018441162109376,-1.439226508140564,1.8703269958496094,-0.731839656829834
1710737861220326100,61.076326171875,-0.7263025045394897,0.22403621673583984,2.1996984481811523
1710737861278211000,61.13421118164062,-0.29961609840393066,-1.0312933921813965,4.674853324890137
1710737861336096000,61.19209594726563,-0.7574283480644226,-1.2601447105407715,5.772620677947998
1710737861393981000,61.24998095703125,0.5221046209335327,1.7949609756469727,3.662074089050293
1710737861451865900,61.307865966796875,0.06823670864105225,0.5542492866516113,5.249317646026611
1710737861509750800,61.36575073242187,0.8400071263313293,-0.24651670455932617,2.579071521759033
1710737861567635700,61.4236357421875,1.7860660552978516,1.5575628280639648,-0.5238432884216309
1710737861625520600,61.48152075195313,0.45311617851257324,0.670598030090332,-2.837740421295166
1710737861683405600,61.539405517578125,0.10369884967803955,-0.942507266998291,-3.6903433799743652
1710737861741290500,61.59729052734375,0.052268385887145996,-2.6754326820373535,-3.3547582626342773
1710737861799175400,61.65517553710937,0.2731626033782959,-4.90608024597168,-2.042431354522705
1710737861857060400,61.71306030273438,1.1892645359039307,-4.121189117431641,-1.8188118934631348
1710737861914945300,61.7709453125,0.34147435426712036,-3.94252872467041,-1.2156977653503418
1710737861972830200,61.828830322265624,2.1707029342651367,-2.093113422393799,2.092863082885742
1710737862030715400,61.88671533203125,-0.7130793333053589,-1.2584996223449707,1.749424934387207
1710737862088600300,61.94460034179688,-1.1501394510269165,2.6932928562164307,-1.0349960327148438
1710737862146485200,62.0024853515625,-1.4632842540740967,3.9143893718719482,-2.1783766746520996
1710737862204370200,62.0603701171875,-2.6409449577331543,3.614279270172119,-1.9459490776062012
1710737862262255000,62.11825512695312,-0.9830164909362793,2.0540857315063477,0.3143620491027832
1710737862320140000,62.17614013671875,-1.2835063934326172,-0.2245478630065918,5.374340534210205
1710737862378025000,62.23402490234375,-0.09684193134307861,-1.1288824081420898,6.157759666442871
1710737862435910000,62.291909912109375,1.3648403882980347,-0.19483566284179688,4.333428382873535
1710737862493794800,62.349794921875,1.2733005285263062,0.4074549674987793,4.184683799743652
1710737862551679700,62.4076796875,0.7129895687103271,-1.7243890762329102,3.1137547492980957
1710737862609564700,62.46556469726563,2.394510269165039,0.8486371040344238,-0.36801576614379883
1710737862667449600,62.52344970703125,1.5173839330673218,0.8301498889923096,-2.889385223388672
1710737862725334500,62.58133447265625,0.19088441133499146,-0.7846341133117676,-4.909541606903076
1710737862783219700,62.6392197265625,-0.3205873370170593,-2.571614980697632,-4.536334037780762
1710737862841104600,62.69710473632812,0.2090420126914978,-3.8979361057281494,-3.425846576690674
1710737862898989600,62.754989501953126,1.6905438899993896,-4.467075347900391,-1.2969579696655273
1710737862956874500,62.81287451171875,0.7273308634757996,-5.350095748901367,0.9336986541748047
1710737863014759400,62.87075952148437,2.0325541496276855,-0.788703441619873,0.02667713165283203
1710737863072644400,62.92864428710938,0.2870532274246216,-1.5242061614990234,4.489088535308838
1710737863130529300,62.986529296875,-2.4656014442443848,2.214780569076538,1.0549287796020508
1710737863188414500,63.04441455078125,-1.3671729564666748,3.7706286907196045,-1.6530308723449707
1710737863246299400,63.10229931640625,-1.8138699531555176,4.08644437789917,-2.8836050033569336
1710737863304184300,63.16018432617187,-1.7028709650039673,2.237046003341675,-1.1998968124389648
1710737863362069200,63.2180693359375,-1.2284767627716064,0.13587236404418945,2.4478044509887695
1710737863419954200,63.2759541015625,-0.8300911784172058,-1.2462220191955566,4.813347339630127
1710737863477839000,63.333839111328125,-0.2707301378250122,-2.5801353454589844,5.1658830642700195
1710737863535724300,63.391724365234374,2.2980384826660156,-0.09456062316894531,2.1807188987731934
1710737863593609200,63.44960913085937,0.8101060390472412,-0.6951303482055664,3.287668228149414
1710737863651494100,63.507494140625,0.10262870788574219,0.184783935546875,0.4461331367492676
1710737863709379000,63.565379150390626,0.4176541566848755,1.9833641052246094,-1.6019654273986816
1710737863767264300,63.62326416015625,-0.6962788701057434,1.3920485973358154,-3.4365062713623047
1710737863825149200,63.68114916992187,-0.9004644751548767,-0.11921548843383789,-3.5476131439208984
1710737863883034000,63.7390341796875,-0.4779040217399597,-1.8376295566558838,-3.369753837585449
1710737863940919000,63.7969189453125,0.8984032869338989,-3.5900192260742188,-1.5970025062561035
1710737863998804000,63.854803955078125,1.1440997123718262,-3.0747432708740234,-0.9092011451721191
1710737864056689200,63.912689208984375,-0.5152170658111572,-4.4980058670043945,0.7667341232299805
1710737864114574000,63.97057397460937,1.8326622247695923,-1.551201343536377,2.495760917663574
1710737864172459000,64.028458984375,-1.0221062898635864,-1.0729732513427734,3.133927345275879
1710737864230344000,64.08634399414062,-1.2152132987976074,2.625354051589966,-1.00038480758667
1710737864288229000,64.14422900390625,-1.3582520484924316,3.901068687438965,-3.2957639694213867
1710737864346114000,64.20211401367187,-1.8455547094345093,3.4053196907043457,-3.063647747039795
1710737864403999000,64.2599990234375,-0.6173334121704102,1.7047815322875977,-0.49607419967651367
1710737864461884200,64.31788427734375,1.0320690870285034,0.1674647331237793,4.521528720855713
1710737864519769000,64.37576904296876,-1.6145570278167725,-1.097977638244629,5.578558444976807
1710737864577654000,64.43365405273437,-0.8431624174118042,-2.0659661293029785,3.3099560737609863
1710737864635539200,64.49153930664062,-0.382804274559021,-0.31642675399780273,2.7907943725585938
1710737864693424000,64.54942407226562,-1.4351898431777954,-1.822957992553711,1.8836040496826172
1710737864751309000,64.60730908203125,1.6635658740997314,1.0347132682800293,0.03869295120239258
1710737864809194200,64.6651943359375,0.9130877256393433,2.1151015758514404,-2.96821928024292
1710737864867079200,64.7230791015625,0.2716904878616333,0.9363958835601807,-4.325283527374268
1710737864924964000,64.78096411132813,0.005738019943237305,-0.8212482929229736,-3.6394119262695312
1710737864982849300,64.83884936523438,0.3753480911254883,-2.8078389167785645,-1.8053035736083984
1710737865040734200,64.89673413085937,1.1120744943618774,-4.0596747398376465,-0.1633777618408203
1710737865098619100,64.954619140625,0.9715151190757751,-4.703681468963623,1.1451702117919922
1710737865156504300,65.01250439453125,2.041995048522949,0.4187502861022949,-0.4082603454589844
1710737865214389200,65.07038916015625,-0.994120717048645,-1.4158916473388672,4.126134872436523
1710737865272274400,65.1282744140625,-3.2468223571777344,0.9581899642944336,0.5896077156066895
1710737865330159400,65.18615942382813,-0.3714101314544678,2.6534039974212646,-2.69997501373291
1710737865388044500,65.24404443359376,-1.7761973142623901,3.259096145629883,-3.362436294555664
1710737865445929500,65.30192944335937,-2.1001932621002197,2.0544116497039795,-1.804758071899414
1710737865503814400,65.359814453125,-1.7193440198898315,0.0809473991394043,0.4056558609008789
1710737865561699600,65.41769946289062,-0.30462169647216797,-1.9902915954589844,3.5499420166015625
1710737865619584500,65.47558447265625,-1.327802300453186,-2.987335205078125,6.162191867828369
1710737865677469700,65.5334697265625,0.7808837890625,1.303619384765625,3.662165641784668
1710737865735354600,65.59135473632813,0.6519016027450562,-0.39752817153930664,4.0233988761901855
1710737865793239800,65.64923974609376,1.9289617538452148,-0.381467342376709,0.9401645660400391
1710737865851124700,65.70712475585937,2.281121253967285,2.105544090270996,-1.4898591041564941
1710737865909010000,65.76501000976563,-0.15704816579818726,2.0098681449890137,-3.5125136375427246
1710737865966894800,65.82289477539062,-0.46599048376083374,0.1542809009552002,-3.5060620307922363
1710737866024780000,65.88078002929687,-0.49022895097732544,-2.1392335891723633,-3.3159594535827637
1710737866082665000,65.9386650390625,0.9138290286064148,-4.247260093688965,-1.2198843955993652
1710737866140550100,65.99655004882813,1.3644421100616455,-3.580155849456787,-0.6158514022827148
1710737866198435300,66.05443530273438,-0.40310138463974,-3.9778475761413574,0.3427314758300781
1710737866256320300,66.1123203125,1.7136155366897583,-0.270082950592041,1.9620351791381836
1710737866314205400,66.17020532226563,-2.0024614334106445,-0.5803289413452148,2.9616050720214844
1710737866372090400,66.22809033203124,-1.785416603088379,1.749739408493042,-1.1283268928527832
1710737866429975600,66.2859755859375,-0.5314652919769287,3.1019351482391357,-3.3653340339660645
1710737866487860700,66.34386083984376,-1.5898048877716064,3.5099141597747803,-3.1703271865844727
1710737866545745700,66.40174560546875,-1.730761170387268,1.9816226959228516,-0.974668025970459
1710737866603630800,66.459630859375,-1.203360915184021,0.19159269332885742,1.9481439590454102
1710737866661515800,66.51751586914062,-0.20031344890594482,-1.3594932556152344,4.368812561035156
1710737866719401000,66.57540087890625,0.18114709854125977,-2.5192413330078125,5.575769424438477
1710737866777286100,66.6332861328125,1.5264253616333008,0.8179903030395508,4.240592002868652
1710737866835171000,66.69117114257813,0.6069371700286865,-0.7410221099853516,3.976743698120117
1710737866893056300,66.74905615234375,1.4118109941482544,0.2876434326171875,0.15903759002685547
1710737866950941400,66.80694140625,1.7047843933105469,2.1418511867523193,-2.034853458404541
1710737867008826400,66.86482641601563,-0.27952855825424194,1.4894883632659912,-3.846101760864258
1710737867066711600,66.92271166992188,-0.6403459310531616,-0.6001911163330078,-3.8785147666931152
1710737867124596700,66.9805966796875,-0.35231199860572815,-2.396002769470215,-2.8692688941955566
1710737867182481700,67.03848168945312,1.1645909547805786,-4.12470817565918,-0.6566638946533203
1710737867240366800,67.09636694335937,1.4410820007324219,-3.6342625617980957,0.16411590576171875
1710737867298252000,67.154251953125,0.041306257247924805,-3.252579689025879,-0.3644571304321289
1710737867356137200,67.21213720703125,1.0593724250793457,-0.9254336357116699,2.8879785537719727
1710737867414022100,67.27002221679687,-2.2762815952301025,-0.6112360954284668,2.2789306640625
1710737867471907300,67.3279072265625,-0.53152996301651,2.1609513759613037,-1.5962224006652832
1710737867529792500,67.38579248046875,-0.25614917278289795,3.2732484340667725,-3.7427968978881836
1710737867587677700,67.443677734375,-0.7394034266471863,3.3241260051727295,-3.1261281967163086
1710737867645562600,67.50156274414063,-0.9818687438964844,1.4091706275939941,-0.03747224807739258
1710737867703447800,67.55944775390626,-1.471354603767395,-0.5277910232543945,2.969996452331543
1710737867761333000,67.6173330078125,-1.12717604637146,-1.2744197845458984,3.8135929107666016
1710737867819218000,67.67521801757813,-0.5643672347068787,-2.388889789581299,4.1917405128479
1710737867877103000,67.73310302734374,1.0134663581848145,1.0164732933044434,3.7351794242858887
1710737867934988300,67.79098828125,0.2118391990661621,-1.516317367553711,4.281796932220459
1710737867992873500,67.84887353515624,1.6458823680877686,1.6995177268981934,0.4825472831726074
1710737868050758700,67.90675854492187,1.144580602645874,2.5589377880096436,-1.8579468727111816
1710737868108643800,67.96464379882812,-0.24294841289520264,1.0265858173370361,-4.116523265838623
1710737868166528800,68.02252880859375,-0.1796920895576477,-1.19295334815979,-4.091426849365234
1710737868224414000,68.0804140625,0.4939601421356201,-3.628537178039551,-2.2654080390930176
1710737868282299100,68.13829907226562,1.5585107803344727,-4.861523628234863,-0.4453620910644531
1710737868340184300,68.19618432617187,1.117432951927185,-4.726570129394531,-0.04044914245605469
1710737868398069500,68.25406958007812,0.5637282133102417,-1.3677558898925781,-2.045100212097168
1710737868455954400,68.31195434570313,0.7399508357048035,-1.6919584274291992,4.502451419830322
1710737868513839600,68.36983959960938,-2.5762429237365723,1.6655325889587402,2.010071277618408
1710737868571724800,68.42772485351563,-2.927492618560791,4.151155471801758,0.104522705078125
1710737868629610000,68.48560986328125,-2.6546542644500732,4.349555969238281,-2.1705832481384277
1710737868687495200,68.5434951171875,-2.1504669189453125,1.8978946208953857,-1.446965217590332
1710737868745380400,68.60138037109375,-0.7317289710044861,-0.98846435546875,0.5946478843688965
1710737868803265500,68.659265625,-0.6806781888008118,-1.4488496780395508,3.0717105865478516
1710737868861150700,68.71715063476563,-0.9068163633346558,-2.5738229751586914,4.666188716888428
1710737868919036000,68.77503588867188,0.7133716344833374,0.8188343048095703,4.012385368347168
1710737868976920800,68.8329208984375,0.04329276084899902,-0.8617854118347168,5.019664287567139
1710737869034806000,68.89080590820312,1.5116736888885498,-0.5328044891357422,0.6642351150512695
1710737869092691200,68.94869116210937,2.4033241271972656,1.724975347518921,-1.9218811988830566
1710737869150576400,69.00657641601562,0.1495702862739563,1.609619140625,-3.8468241691589355
1710737869208461600,69.06446166992187,-0.655505895614624,-0.10727739334106445,-4.404852390289307
1710737869266346800,69.1223466796875,-0.3768137991428375,-2.389113187789917,-3.71688175201416
1710737869324232000,69.18023193359375,0.9683021306991577,-4.733260154724121,-1.5838027000427246
1710737869382117000,69.2381171875,2.0420124530792236,-3.314397096633911,-0.5025386810302734
1710737869440002300,69.29600219726562,-0.8651407957077026,-4.319629669189453,1.2988348007202148
1710737869497887500,69.35388745117187,0.48543500900268555,-0.6358261108398438,2.8337831497192383
1710737869555772700,69.41177270507812,-2.112968921661377,-0.7636761665344238,3.4031753540039062
1710737869613657900,69.46965795898437,-1.8572099208831787,2.0927574634552,-0.9785165786743164
1710737869671543000,69.52754296875,-0.5832580924034119,3.018453359603882,-3.7576050758361816
1710737869729428200,69.58542822265625,-0.6310023069381714,2.7377400398254395,-3.8886513710021973
1710737869787313400,69.6433134765625,-0.3927720785140991,0.9868378639221191,-1.6606125831604004
1710737869845198600,69.70119848632812,-0.7485649585723877,-0.3809366226196289,1.570155143737793
1710737869903083800,69.75908374023437,-1.3497753143310547,-0.9777126312255859,3.492267608642578
1710737869960969000,69.81696899414062,-0.844254195690155,-2.14626407623291,5.013182163238525
1710737870018854100,69.87485424804687,1.0286235809326172,1.1787667274475098,4.804952621459961
1710737870076739300,69.9327392578125,0.3111875653266907,0.05431365966796875,4.647704601287842
1710737870134624500,69.99062451171875,1.3044873476028442,1.6312685012817383,0.5858058929443359
1710737870192509700,70.048509765625,1.596679925918579,2.1330549716949463,-2.089186191558838
1710737870250395000,70.10639477539063,0.058088481426239014,0.9145317077636719,-3.812798500061035
1710737870308280000,70.16428002929688,0.08615443110466003,-0.9318580627441406,-3.9551448822021484
1710737870366165200,70.22216528320313,1.1417893171310425,-2.2732326984405518,-3.744133472442627
1710737870424050400,70.28005053710937,2.410278081893921,-3.8405351638793945,-1.3667330741882324
1710737870481935600,70.337935546875,0.7852002382278442,-3.53061580657959,0.6124067306518555
1710737870539820800,70.39582080078125,-0.6089800596237183,-3.002516269683838,-0.1573810577392578
1710737870597706000,70.4537060546875,1.9254980087280273,-1.1600637435913086,4.0486626625061035
1710737870655591200,70.51159106445313,-3.4533348083496094,-0.1540241241455078,2.0775856971740723
1710737870713476400,70.56947631835938,-0.3896280527114868,2.6115901470184326,-1.6166753768920898
1710737870771361500,70.62736157226563,-1.6806998252868652,3.6274101734161377,-2.576073169708252
1710737870829246700,70.68524682617188,-2.3278861045837402,3.594609022140503,-1.0273523330688477
1710737870887132000,70.7431318359375,-2.5314173698425293,1.3239984512329102,1.394658088684082
1710737870945017000,70.80101708984375,-1.2351429462432861,-0.6583247184753418,3.0560574531555176
1710737871002902300,70.85890234375,-0.23932230472564697,-1.8661909103393555,4.500831604003906
1710737871060787200,70.916787109375,0.9197239875793457,-1.4900741577148438,4.355146408081055
1710737871118672600,70.97467260742188,1.8509306907653809,0.1499176025390625,4.024168491363525
1710737871176557600,71.0325576171875,0.919211745262146,-1.9738879203796387,1.9958453178405762
1710737871234443000,71.09044311523438,2.3813905715942383,1.3864545822143555,-0.6721301078796387
1710737871292328000,71.14832788085937,0.2722216844558716,1.984041690826416,-2.6535067558288574
1710737871350213000,71.20621313476562,-0.9039263725280762,0.5146777629852295,-4.352794647216797
1710737871408098300,71.26409838867187,-0.6858410835266113,-1.7679152488708496,-3.6678147315979004
1710737871465983500,71.3219833984375,0.4622913599014282,-4.239515781402588,-2.2218995094299316
1710737871523868700,71.37986865234375,1.9072719812393188,-4.655892848968506,-1.2124762535095215
1710737871581753900,71.43775390625,0.5060021877288818,-5.053095817565918,0.6487903594970703
1710737871639639000,71.49563916015624,1.4345331192016602,-0.8830389976501465,-0.2138519287109375
1710737871697524200,71.55352416992187,-0.1866626739501953,-1.8063607215881348,3.786074638366699
1710737871755409400,71.61140942382812,-2.4098172187805176,1.9489660263061523,-0.09746456146240234
1710737871813294600,71.66929467773437,-0.527228593826294,3.3254952430725098,-2.913614273071289
1710737871871179800,71.7271796875,-1.4206329584121704,3.598555564880371,-3.401289463043213
1710737871929065000,71.78506494140625,-2.064434289932251,2.290982246398926,-1.222395896911621
1710737871986950100,71.8429501953125,-1.4084036350250244,-0.2541351318359375,2.100292205810547
1710737872044835300,71.90083544921875,-0.3852192163467407,-1.5840773582458496,4.483267784118652
1710737872102720500,71.95872045898437,-0.32651710510253906,-2.2500529289245605,5.835046291351318
1710737872160605400,72.01660546875,0.6563540697097778,1.7970356941223145,4.829239845275879
1710737872218490600,72.07449072265625,-0.5027574300765991,-0.4677300453186035,4.795433521270752
1710737872276375800,72.13237573242188,1.1550462245941162,0.21630239486694336,0.6114473342895508
1710737872334261000,72.19026098632813,1.425452709197998,1.152005672454834,-1.7285537719726562
1710737872392146200,72.24814624023438,-0.1407119631767273,0.7109375,-4.0250959396362305
1710737872450031400,72.30603125,-0.21567559242248535,-1.1988615989685059,-4.168105602264404
1710737872507916500,72.36391650390625,-0.029490292072296143,-2.976489305496216,-4.4264960289001465
1710737872565801700,72.4218017578125,1.3810276985168457,-4.8724212646484375,-1.884791374206543
1710737872623687000,72.47968701171875,1.3621922731399536,-3.998673915863037,-0.39708614349365234
1710737872681572000,72.53757202148438,-0.5204637050628662,-3.744995594024658,-0.0991353988647461
1710737872739457300,72.59545727539063,0.9364680051803589,-1.0277032852172852,3.1107559204101562
1710737872797342200,72.65334228515626,-2.1293911933898926,-0.14403438568115234,2.915757179260254
1710737872855227400,72.71122729492187,-1.6950358152389526,2.768275022506714,-0.7443809509277344
1710737872913112600,72.76911254882812,-0.809589147567749,3.727278232574463,-2.8965272903442383
1710737872970997800,72.82699780273437,-1.734222412109375,3.515840768814087,-2.618809700012207
