time,seconds_elapsed,z,y,x
1710737800444874200,0.300874267578125,0.5455629825592041,0.4911975562572479,1.057452917098999
1710737800478207200,0.334207275390625,0.41949936747550964,0.09674293547868729,0.0975828468799591
1710737800511540200,0.367540283203125,0.5411342978477478,-0.48508909344673157,-0.24556060135364532
1710737800544873200,0.400873291015625,0.4815003573894501,-1.0894460678100586,-0.0716218426823616
1710737800578206200,0.434206298828125,0.10063708573579788,-1.0127084255218506,-0.6439093947410583
1710737800611539200,0.467539306640625,0.08322793990373611,-0.24159009754657745,-0.9056574106216431
1710737800644872200,0.5008720703125,0.5012765526771545,0.06788039952516556,0.44843825697898865
1710737800678205000,0.534204833984375,0.6372663974761963,-0.3694862425327301,0.8005917072296143
1710737800711538000,0.567537841796875,0.19974705576896667,-0.4734066128730774,-0.6998782753944397
1710737800744871000,0.600870849609375,0.5379273891448975,-0.27808821201324463,-1.2699514627456665
1710737800778204000,0.634203857421875,1.1998567581176758,-0.8444199562072754,0.00992626789957285
1710737800811537000,0.667536865234375,0.9454388618469238,-1.52139151096344,-0.36750099062919617
1710737800844870000,0.700869873046875,1.066157579421997,-1.644248127937317,-1.3682215213775635
1710737800878203000,0.734202880859375,1.4633609056472778,-3.6090383529663086,-0.12369657307863235
1710737800911535900,0.767535888671875,1.9694479703903198,-6.3961052894592285,2.103299856185913
1710737800944868900,0.800868896484375,2.7756898403167725,-8.092657089233398,2.5840365886688232
1710737800978201900,0.834201904296875,3.8002336025238037,-6.189333438873291,-0.6571189165115356
1710737801011534800,0.867534912109375,4.173614025115967,-3.858416795730591,-2.713078022003174
1710737801044867600,0.90086767578125,4.0050201416015625,-2.442014694213867,-1.809329628944397
1710737801078200600,0.93420068359375,3.6037697792053223,-2.689484119415283,-0.41980478167533875
1710737801111533600,0.967533447265625,3.5250468254089355,-3.365692138671875,0.12843063473701477
1710737801144866600,1.000866455078125,4.539358615875244,-2.819136381149292,0.3528406620025635
1710737801178199600,1.034199462890625,4.541038513183594,-1.6876182556152344,0.737750768661499
1710737801211532500,1.067532470703125,3.3106393814086914,-1.3174448013305664,1.2578872442245483
1710737801244865500,1.100865478515625,2.221651554107666,-0.7876875400543213,1.2799540758132935
1710737801278198500,1.134198486328125,1.4659570455551147,0.1850867122411728,0.5808393955230713
1710737801311531500,1.167531494140625,0.5611395835876465,1.4193036556243896,-0.29687178134918213
1710737801344864500,1.200864501953125,-0.4869979918003082,2.5028703212738037,-0.6528429985046387
1710737801378197500,1.234197509765625,-1.0502755641937256,3.136395215988159,-0.8622109293937683
1710737801411530200,1.2675302734375,-1.2606359720230103,2.394292116165161,-0.5056288242340088
1710737801444863200,1.30086328125,-1.5595693588256836,0.7887565493583679,-0.07727217674255371
1710737801478196200,1.3341962890625,-1.4425158500671387,-0.15416257083415985,0.0910162404179573
1710737801511529200,1.367529296875,-1.6790664196014404,-0.2579302489757538,0.0725381150841713
1710737801544862200,1.4008623046875,-2.0106801986694336,-0.23593975603580475,-0.07421794533729553
1710737801578195200,1.4341953125,-2.2049295902252197,0.6924717426300049,-0.03504735976457596
1710737801611528200,1.467528076171875,-2.5382230281829834,1.3656253814697266,-0.22334103286266327
1710737801644861200,1.500861083984375,-2.6452741622924805,1.4503804445266724,0.039170581847429276
1710737801678194200,1.534194091796875,-1.8915648460388184,1.5323866605758667,0.3709369897842407
1710737801711527200,1.567527099609375,-1.0927294492721558,1.6727288961410522,0.6858287453651428
1710737801744860200,1.600860107421875,-0.3874298632144928,0.28305134177207947,1.5905698537826538
1710737801778193000,1.63419287109375,-0.1585148572921753,-0.030313294380903244,1.6756303310394287
1710737801811526000,1.66752587890625,-0.028633465990424156,0.6074876189231873,0.6590278148651123
1710737801844859000,1.70085888671875,0.014965757727622986,0.3249707520008087,0.24128466844558716
1710737801878191900,1.73419189453125,-0.3148917555809021,-0.2563267946243286,0.5707604289054871
1710737801911524900,1.76752490234375,-0.6777350306510925,-0.4411080777645111,0.7982246279716492
1710737801944857900,1.80085791015625,-0.6710920929908752,-0.15118469297885895,0.854040801525116
1710737801978190800,1.83419091796875,-0.44393324851989746,0.28999972343444824,0.9468895792961121
1710737802011523800,1.86752392578125,-0.1871483325958252,0.3975088596343994,1.067531943321228
1710737802044856800,1.90085693359375,-0.12392564117908478,0.11720632016658783,0.8146411776542664
1710737802078189800,1.93418994140625,-0.07887565344572067,-0.2901524603366852,0.42637139558792114
1710737802111522800,1.967522705078125,-0.044668205082416534,-0.5123481154441833,0.5305208563804626
1710737802144855600,2.00085546875,-0.15324631333351135,0.10689827054738998,0.6226060390472412
1710737802178188500,2.0341884765625,-0.17569494247436523,0.6580352187156677,0.017409147694706917
1710737802211521500,2.067521484375,-0.1391204595565796,0.7432484030723572,-0.517158567905426
1710737802244854500,2.1008544921875,-0.14813046157360077,0.2441861927509308,-0.8073109984397888
1710737802278187500,2.1341875,0.14469444751739502,0.9066500663757324,-0.8247201442718506
1710737802311520500,2.1675205078125,0.22616620361804962,1.3544011116027832,-0.5121954083442688
1710737802344853500,2.200853515625,0.25289076566696167,0.3310028612613678,-0.16156910359859467
1710737802378186500,2.2341865234375,0.0713164210319519,-1.2804886102676392,-0.07681404054164886
1710737802411519500,2.26751953125,-0.05215108394622803,-2.1240687370300293,-0.658951461315155
1710737802444852500,2.3008525390625,-0.05268557742238045,-1.7874153852462769,-0.5288410186767578
1710737802478185500,2.334185546875,-0.2887016832828522,-1.0566130876541138,-0.3342097997665405
1710737802511518200,2.367518310546875,-0.1621035933494568,-0.01695101149380207,-0.8539644479751587
1710737802544851200,2.400851318359375,0.18753011524677277,0.7821899056434631,-1.3986111879348755
1710737802578184200,2.43418408203125,0.5922927856445312,0.7559998631477356,-0.9431481957435608
1710737802611517200,2.46751708984375,0.669564962387085,-0.11323580890893936,0.14614520967006683
1710737802644850200,2.50085009765625,0.4811185598373413,-0.5760289430618286,0.1579040139913559
1710737802678183200,2.53418310546875,0.7147676348686218,-0.5799230933189392,-0.6577298045158386
1710737802711516200,2.56751611328125,1.0745567083358765,-0.9068791270256042,-0.7224032282829285
1710737802744849200,2.60084912109375,1.336839199066162,-0.8983272314071655,-0.16439427435398102
1710737802778182100,2.63418212890625,1.7630579471588135,-0.8348754644393921,0.5130353569984436
1710737802811515100,2.66751513671875,1.900956630706787,-2.009305715560913,1.6486003398895264
1710737802844848000,2.70084814453125,1.5665178298950195,-3.685088872909546,3.0846259593963623
1710737802878180900,2.734180908203125,0.9743777513504028,-3.7765631675720215,3.2138965129852295
1710737802911513900,2.767513916015625,0.45531028509140015,-1.9588344097137451,1.6896798610687256
1710737802944846800,2.800846923828125,-0.08101361989974976,0.1533990204334259,-0.07780666649341583
1710737802978179800,2.834179931640625,-0.4983749985694885,1.1977951526641846,-0.7502731680870056
1710737803011512800,2.867512939453125,-0.7848623991012573,1.0159916877746582,-0.288930743932724
1710737803044845800,2.900845703125,-1.116552472114563,-0.03321481868624687,0.6610894203186035
1710737803078178800,2.9341787109375,-1.1199884414672852,-0.9831586480140686,1.1807677745819092
1710737803111511800,2.96751171875,-0.8467106819152832,-1.197566032409668,0.9391012787818909
1710737803144844800,3.0008447265625,-0.3828485310077667,-0.5924454927444458,0.22250111401081085
1710737803178177800,3.034177734375,-0.12216944992542267,-0.08948912471532822,-0.19623468816280365
1710737803211510800,3.0675107421875,-0.09994988143444061,-0.0859767496585846,-0.2605263590812683
1710737803244843500,3.100843505859375,0.03649812191724777,-0.16072918474674225,-0.09811734408140182
1710737803278176500,3.134176513671875,0.3046600818634033,-0.020997874438762665,-0.3844519853591919
1710737803311509500,3.167509521484375,1.1464076042175293,0.5169295072555542,-0.8646543025970459
1710737803344842500,3.200842529296875,1.2953015565872192,1.142895221710205,-0.7869240045547485
1710737803378175500,3.234175537109375,0.843198299407959,1.278350591659546,-0.5661026835441589
1710737803411508500,3.267508544921875,0.4040754735469818,0.6235986948013306,-0.4196520745754242
1710737803444841500,3.300841552734375,0.015958385542035103,0.7032378911972046,-0.7924979329109192
1710737803478174500,3.334174560546875,0.029167955741286278,1.1144908666610718,-1.0525661706924438
1710737803511507500,3.367507568359375,0.31199023127555847,1.257200002670288,-0.9665894508361816
1710737803544840400,3.40084033203125,0.3972797989845276,0.878703773021698,-0.639480710029602
1710737803578173400,3.43417333984375,0.3836120665073395,0.16676130890846252,-0.4235462248325348
1710737803611506200,3.467506103515625,0.6441384553909302,-0.22181391716003418,-0.387658953666687
1710737803644839200,3.500839111328125,0.9690328240394592,-0.3907131850719452,-0.34573954343795776
1710737803678172200,3.534172119140625,1.3317997455596924,-0.2020377367734909,-0.4419479966163635
1710737803711505200,3.567505126953125,1.5817126035690308,0.5396072268486023,-0.5712185502052307
1710737803744838100,3.600838134765625,1.113574504852295,0.5092175602912903,-0.2334200143814087
1710737803778171100,3.634171142578125,0.6142832636833191,0.1355317384004593,0.007941014133393764
1710737803811504000,3.667504150390625,0.6684959530830383,0.2587701678276062,0.07238540053367615
1710737803844837000,3.700837158203125,0.9164999723434448,-0.12904147803783417,0.642916738986969
1710737803878170000,3.734170166015625,0.32787227630615234,-1.4552671909332275,1.3280582427978516
1710737803911503000,3.767503173828125,-0.7180509567260742,-2.0245769023895264,1.1128109693527222
1710737803944836000,3.800836181640625,-1.4571760892868042,-1.7754275798797607,0.4631749391555786
1710737803978168800,3.8341689453125,-1.6194324493408203,-1.4968048334121704,0.1683647781610489
1710737804011501800,3.867501708984375,-1.8797297477722168,-1.520475149154663,0.45469942688941956
1710737804044834800,3.900834716796875,-2.130864381790161,-1.2899566888809204,0.9446752667427063
1710737804078167800,3.934167724609375,-2.1367437839508057,-0.6542174220085144,1.30476975440979
1710737804111500800,3.967500732421875,-2.053821086883545,-0.37322768568992615,1.4005200862884521
1710737804144833800,4.000833740234375,-1.7025076150894165,-1.2103174924850464,1.3485217094421387
1710737804178166800,4.034166748046875,-0.8952730298042297,-1.9666227102279663,1.1264023780822754
1710737804211499800,4.067499755859375,-0.26755109429359436,-1.7030421495437622,0.790436327457428
1710737804244832800,4.100832763671875,-0.09009996801614761,-0.9166526794433594,0.16034740209579468
1710737804278165800,4.134165771484375,0.17050273716449738,0.006184828467667103,-0.6957550048828125
1710737804311498800,4.167498779296875,0.9451334476470947,0.9278770089149475,-1.168932557106018
1710737804344831500,4.20083154296875,1.3268365859985352,1.3267602920532227,-1.1848145723342896
1710737804378164500,4.23416455078125,2.0019755363464355,1.3848670721054077,-1.0356152057647705
1710737804411497500,4.26749755859375,2.361459255218506,1.5149011611938477,-0.5659499764442444
1710737804444830500,4.30083056640625,1.6481422185897827,1.5771312713623047,-0.22731153666973114
1710737804478163500,4.33416357421875,0.8144884705543518,0.8230403065681458,-0.5449520945549011
1710737804511496400,4.367496337890625,0.690486490726471,0.5073850154876709,-1.377231478691101
1710737804544829400,4.400829345703125,0.5484644770622253,0.7195780873298645,-1.5003172159194946
1710737804578162400,4.434162353515625,0.10873081535100937,1.023932695388794,-0.9104678630828857
1710737804611495400,4.467495361328125,-0.14698512852191925,1.1793932914733887,-0.2743467688560486
1710737804644828400,4.500828369140625,0.13026317954063416,1.048595666885376,-0.33268269896507263
1710737804678161400,4.534161376953125,0.5822901725769043,0.6872031688690186,-0.538919985294342
1710737804711494100,4.567494140625,0.7788302302360535,0.16439427435398102,-0.16706672310829163
1710737804744827100,4.6008271484375,0.5822901725769043,-0.22547899186611176,-0.3372640311717987
1710737804778160000,4.63416015625,0.45080527663230896,-0.0880383625626564,-0.7694385051727295
1710737804811493000,4.6674931640625,0.4901285767555237,0.39643988013267517,-0.5303681492805481
1710737804844826000,4.700826171875,0.7801283001899719,0.8670976758003235,-0.11567919701337814
1710737804878159000,4.7341591796875,1.0427162647247314,1.41762375831604,0.0692548081278801
1710737804911492000,4.7674921875,1.1145671606063843,0.9339854717254639,0.5867187976837158
1710737804944825000,4.8008251953125,0.5106683373451233,-0.7519529461860657,1.4300698041915894
1710737804978158000,4.834157958984375,-0.25143998861312866,-2.1808011531829834,1.5226894617080688
1710737805011491000,4.867490966796875,-0.9716289043426514,-2.426743507385254,0.8487722873687744
1710737805044824000,4.900823974609375,-1.4829081296920776,-1.7754275798797607,0.16279079020023346
1710737805078156800,4.93415673828125,-1.9050798416137695,-1.3062968254089355,0.21822518110275269
1710737805111489800,4.96748974609375,-2.186985969543457,-1.0870027542114258,0.8000571727752686
1710737805144822800,5.00082275390625,-2.146669864654541,-0.7778376340866089,1.194435477256775
1710737805178155800,5.03415576171875,-2.0343503952026367,-0.4082750380039215,1.2286429405212402
1710737805211488800,5.06748876953125,-1.7099905014038086,0.22929678857326508,0.807921826839447
1710737805244821800,5.10082177734375,-0.9771265387535095,1.2542221546173096,0.1047603040933609
1710737805278154800,5.13415478515625,-0.2459423840045929,1.7367150783538818,-0.5687751770019531
1710737805311487700,5.16748779296875,0.08498412370681763,0.9620080590248108,-0.9894198179244995
1710737805344820700,5.20082080078125,0.2107423096895218,-0.012904148548841476,-1.0322555303573608
1710737805378153700,5.23415380859375,0.40277740359306335,-0.3164188861846924,-0.7539382576942444
1710737805411486700,5.26748681640625,0.5043307542800903,0.11377029865980148,-0.7699729800224304
1710737805444819500,5.3008193359375,1.2413179874420166,0.29534465074539185,-1.4251066446304321
1710737805478152400,5.33415234375,1.678073763847351,-0.31122666597366333,-1.259490728378296
1710737805511485400,5.3674853515625,1.159769892692566,-0.9975135922431946,-0.41048935055732727
1710737805544818400,5.400818359375,0.47539186477661133,-0.19944162666797638,0.06742226332426071
1710737805578151400,5.4341513671875,0.6375718116760254,1.1845855712890625,-0.6297071576118469
1710737805611484400,5.467484375,0.6339067220687866,1.94081449508667,-0.7906654477119446
1710737805644817400,5.5008173828125,0.46424391865730286,1.6349326372146606,-0.18371231853961945
1710737805678150400,5.534150390625,0.37414395809173584,1.0874608755111694,0.2432699203491211
1710737805711483400,5.5674833984375,0.32726141810417175,0.9110023379325867,-0.14484715461730957
1710737805744816400,5.60081640625,0.12995775043964386,0.9788827300071716,-0.8115105628967285
1710737805778149400,5.6341494140625,0.18928629159927368,1.1356414556503296,-1.461146593093872
1710737805811482000,5.667482177734375,0.020463382825255394,1.2690352201461792,-1.9090503454208374
1710737805844815000,5.700815185546875,-0.30252209305763245,1.0593618154525757,-1.8900377750396729
1710737805878148000,5.734148193359375,-0.011453386396169662,0.5217399001121521,-1.041723608970642
1710737805911481000,5.767481201171875,-0.05329642444849014,-0.005803049076348543,-0.35681116580963135
1710737805944814000,5.80081396484375,-0.054365407675504684,-0.3452814221382141,0.26212984323501587
1710737805978147000,5.83414697265625,-0.33023929595947266,-1.0815050601959229,0.9367342591285706
1710737806011480000,5.86747998046875,-0.9637642502784729,-1.9537185430526733,1.4922997951507568
1710737806044813000,5.90081298828125,-1.389830231666565,-2.499892473220825,1.6130949258804321
1710737806078146000,5.93414599609375,-1.431673288345337,-2.3041157722473145,1.0886061191558838
1710737806111479000,5.96747900390625,-1.514443039894104,-1.5590349435806274,0.6687250137329102
1710737806144812000,6.00081201171875,-1.7441216707229614,-0.9116895198822021,0.734009325504303
1710737806178144800,6.034144775390625,-1.7333554029464722,-0.31229567527770996,0.9498674869537354
1710737806211477800,6.067477783203125,-1.3968549966812134,0.11293038725852966,1.0871554613113403
1710737806244810800,6.100810791015625,-1.0177478790283203,0.19738002121448517,1.0956308841705322
1710737806278143700,6.134143798828125,-0.9366579055786133,0.010689826682209969,0.9355889558792114
1710737806311476700,6.167476806640625,-0.750654935836792,-0.28037887811660767,0.6019136309623718
1710737806344809700,6.200809814453125,-0.08521319180727005,-0.4133145213127136,0.07200361788272858
1710737806378142700,6.234142822265625,0.45111069083213806,-0.4419479966163635,-0.35138988494873047
1710737806411475700,6.267475830078125,0.7835643291473389,-0.3180987238883972,-0.46752721071243286
1710737806444808700,6.30080859375,0.9062682390213013,-0.18852274119853973,-0.5079194903373718
1710737806478141700,6.3341416015625,1.1592353582382202,-0.11781716346740723,-0.8544989824295044
1710737806511474700,6.367474609375,1.97280752658844,-0.0007635590736754239,-0.9758284687995911
1710737806544807400,6.400807373046875,1.7422127723693848,0.35108447074890137,-0.06459710001945496
1710737806578140400,6.434140380859375,0.6658998727798462,0.8875610828399658,0.8898517489433289
1710737806611473400,6.467473388671875,0.6301652789115906,1.4441956281661987,0.3124483823776245
1710737806644806400,6.500806396484375,1.2281084060668945,2.1085684299468994,-0.5751127004623413
1710737806678139400,6.534139404296875,1.4033452272415161,2.2647926807403564,-0.6504759788513184
1710737806711472400,6.567472412109375,0.9330691695213318,1.6145457029342651,-0.126216322183609
1710737806744805400,6.600805419921875,0.568393349647522,0.4516451954841614,0.1719534993171692
1710737806778138400,6.634138427734375,0.4608078896999359,-0.3325299620628357,0.1301104724407196
1710737806811471400,6.667471435546875,0.2545706033706665,-0.6991910338401794,0.008704573847353458
1710737806844804400,6.700804443359375,0.22700610756874084,-0.5915291905403137,-0.20768806338310242
1710737806878137300,6.734137451171875,0.5014292597770691,-0.159660205245018,-0.37177690863609314
1710737806911470000,6.767469970703125,0.6510104537010193,0.18012358248233795,-0.3736858069896698
1710737806944803000,6.800802978515625,0.6548282504081726,0.28641101717948914,-0.13537901639938354
1710737806978136000,6.834135986328125,0.3700970709323883,0.06398624926805496,0.09078717231750488
1710737807011469000,6.867468994140625,0.5391490459442139,-0.2339545041322708,0.2068481594324112
1710737807044802000,6.900802001953125,0.2576248347759247,-0.8470924496650696,0.42095011472702026
1710737807078135000,6.934135009765625,-0.5798467397689819,-1.271554946899414,0.5929036140441895
1710737807111468000,6.967468017578125,-0.9568158984184265,-1.0493592023849487,0.3778090178966522
1710737807144801000,7.000801025390625,-0.9378032684326172,-0.5679352283477783,0.07528692483901978
1710737807178134000,7.034134033203125,-1.0289721488952637,-0.36780640482902527,0.3423035442829132
1710737807211467000,7.067467041015625,-1.0894460678100586,-0.23334364593029022,0.8410603404045105
1710737807244800000,7.100800048828125,-1.018282413482666,-0.20539739727973938,1.2339115142822266
1710737807278132700,7.1341328125,-1.0220237970352173,-0.422324538230896,1.4861149787902832
1710737807311465700,7.1674658203125,-1.0939511060714722,-0.6428403854370117,1.3910518884658813
1710737807344798700,7.200798828125,-0.9939248561859131,-0.6554391384124756,0.8213604688644409
1710737807378131700,7.234131591796875,-0.7088882327079773,-0.5577799081802368,0.0065666078589856625
1710737807411464700,7.267464599609375,-0.4841728210449219,-0.5353312492370605,-0.6727718710899353
1710737807444797700,7.300797607421875,-0.21097137033939362,-0.4001813232898712,-1.0786035060882568
1710737807478130700,7.334130615234375,0.3760528564453125,-0.11415208131074905,-1.2849935293197632
1710737807511463700,7.367463623046875,0.7020925879478455,0.18638476729393005,-1.0531007051467896
1710737807544796700,7.400796630859375,0.9562813639640808,0.30397287011146545,-0.812274158000946
1710737807578129700,7.434129638671875,2.0260276794433594,0.12843063473701477,-0.521434485912323
1710737807611462700,7.467462646484375,2.0545847415924072,-0.17393875122070312,0.27083441615104675
1710737807644795400,7.50079541015625,1.0584455728530884,-0.17210622131824493,0.6897992491722107
1710737807678128400,7.53412841796875,0.4107184112071991,0.1892099380493164,0.14637427031993866
1710737807711461400,7.56746142578125,0.056427016854286194,0.996749997138977,-0.5685460567474365
1710737807744794400,7.60079443359375,-0.22280654311180115,1.5907225608825684,-0.5668662786483765
1710737807778127400,7.63412744140625,-0.3113030195236206,1.6514256000518799,-0.11766445636749268
1710737807811460400,7.66746044921875,-0.19241689145565033,1.2182585000991821,0.29687178134918213
1710737807844793300,7.70079345703125,-0.14225105941295624,0.5371637940406799,0.43469417095184326
1710737807878126300,7.734126220703125,-0.17485502362251282,-0.13263021409511566,0.4037700295448303
1710737807911459300,7.767459228515625,-0.1882936656475067,-0.5996229648590088,0.28763270378112793
1710737807944792300,7.800792236328125,0.3676536977291107,-0.20738264918327332,-0.14759597182273865
1710737807978125300,7.834125244140625,0.7162184119224548,0.40331190824508667,-0.6632274389266968
1710737808011458000,7.8674580078125,0.8080745935440063,0.38903334736824036,-0.6396334171295166
1710737808044791000,7.900791015625,0.9562813639640808,0.1871483325958252,-0.4784461259841919
1710737808078124000,7.9341240234375,1.4289244413375854,0.2008923888206482,-0.1862320601940155
1710737808111457000,7.96745703125,1.124035358428955,-0.3643703758716583,0.42843300104141235
1710737808144790000,8.0007900390625,0.03420744836330414,-1.300112009048462,0.8690065741539001
1710737808178123000,8.034123046875,-0.8415948152542114,-1.3449329137802124,0.33619505167007446
1710737808211456000,8.0674560546875,-1.5142903327941895,-0.7340856790542603,-0.33566057682037354
1710737808244789000,8.1007890625,-1.9522678852081299,-0.2279987335205078,-0.3384093940258026
1710737808278122000,8.1341220703125,-2.1528549194335938,0.29320669174194336,0.11621369421482086
1710737808311455000,8.167455078125,-2.06916880607605,0.6707102656364441,0.5066977739334106
1710737808344788000,8.2007880859375,-2.0743608474731445,0.5115082263946533,0.6433748602867126
1710737808378120700,8.23412060546875,-2.1051323413848877,0.06749862432479858,0.5908420085906982
1710737808411453700,8.26745361328125,-1.8605643510818481,-0.21921780705451965,0.25739577412605286
1710737808444786700,8.30078662109375,-1.2098593711853027,-0.1417929232120514,-0.32245099544525146
1710737808478119700,8.33411962890625,-0.17256435751914978,0.21959958970546722,-0.7870003581047058
1710737808511452700,8.36745263671875,0.533727765083313,0.11590826511383057,-0.7779139876365662
1710737808544785700,8.40078564453125,0.8447254300117493,-0.16042375564575195,-0.4668400287628174
1710737808578118700,8.43411865234375,0.6680378317832947,-0.07811209559440613,-0.4572955369949341
1710737808611451600,8.46745166015625,0.7637881636619568,-0.10873081535100937,-0.7620319724082947
1710737808644784600,8.50078466796875,1.4764177799224854,-0.37895438075065613,-0.8647306561470032
1710737808678117600,8.53411767578125,1.0476030111312866,-0.4127800464630127,-0.2976353168487549
1710737808711450600,8.56745068359375,0.4816530644893646,-0.04734066128730774,0.013667707331478596
1710737808744783400,8.600783447265625,0.418430358171463,0.8104416131973267,-0.6911736726760864
1710737808778116400,8.634116455078125,0.4948626458644867,1.4824498891830444,-1.2647593021392822
1710737808811449300,8.667449462890625,0.5029563903808594,1.5217732191085815,-1.0698226690292358
1710737808844782300,8.7007822265625,0.5701495409011841,1.1803096532821655,-0.5731274485588074
1710737808878115300,8.734115234375,0.6977402567863464,0.5802285671234131,-0.24968381226062775
1710737808911448300,8.7674482421875,0.7036960124969482,-0.36215606331825256,-0.14248012006282806
1710737808944781300,8.80078125,0.6980457305908203,-0.9799517393112183,-0.029091600328683853
1710737808978114300,8.8341142578125,0.6542174220085144,-0.832584798336029,-0.22433365881443024
1710737809011447300,8.867447265625,0.5726693272590637,-0.25113457441329956,-0.6292490363121033
1710737809044780300,8.9007802734375,0.7159129977226257,0.16935740411281586,-0.46393850445747375
1710737809078113300,8.93411328125,0.7732563018798828,0.2817533016204834,-0.0035123717971146107
1710737809111446000,8.967446044921875,0.4306473135948181,0.624285876750946,-0.12186402827501297
1710737809144779000,9.000779052734375,0.333064466714859,0.9576557874679565,0.012293301522731781
1710737809178112000,9.034112060546875,-0.17867282032966614,0.34222719073295593,0.7010999321937561
1710737809211445000,9.067445068359374,-0.8396859169006348,-0.7992936372756958,1.1180795431137085
1710737809244778000,9.100778076171874,-0.9688801169395447,-1.3573026657104492,0.7365291118621826
1710737809278111000,9.134111083984376,-0.7733326554298401,-1.0741748809814453,0.337798535823822
1710737809311444000,9.16744384765625,-0.8764894604682922,-0.6739172339439392,0.5276193022727966
1710737809344777000,9.20077685546875,-1.3080530166625977,-0.49745872616767883,0.9392540454864502
1710737809378110000,9.23410986328125,-1.5658305883407593,-0.4870743453502655,1.0578347444534302
1710737809411443000,9.26744287109375,-1.525972843170166,-0.4647020399570465,0.8817580342292786
1710737809444776000,9.30077587890625,-1.4545800685882568,-0.611687183380127,0.6474217176437378
1710737809478108700,9.334108642578125,-1.1334271430969238,-0.601073682308197,0.36490488052368164
1710737809511441700,9.367441650390624,-0.7927270531654358,-0.28045526146888733,-0.24960745871067047
1710737809544774700,9.400774658203124,-0.9947647452354431,0.08658760040998459,-1.0279031991958618
1710737809578107600,9.434107666015626,-0.7675296068191528,0.7847860455513,-1.4152567386627197
1710737809611440600,9.467440673828126,0.33650049567222595,1.4263283014297485,-1.4330476522445679
1710737809644773600,9.500773681640625,1.2551383972167969,1.3936480283737183,-1.1039537191390991
1710737809678106600,9.534106689453125,2.218444585800171,0.2625879645347595,-0.4737120568752289
1710737809711439600,9.567439697265625,2.0871124267578125,-1.750001072883606,0.5914528369903564
1710737809744772600,9.600772705078125,0.9653677344322205,-2.5718960762023926,1.3789876699447632
1710737809778105600,9.634105712890625,0.5275429487228394,-1.488405704498291,0.3593308925628662
1710737809811438600,9.6674384765625,0.5998520255088806,0.556939959526062,-1.282702922821045
1710737809844771300,9.700771240234374,0.5529694557189941,1.939669132232666,-1.6788372993469238
1710737809878104300,9.734104248046876,0.42759308218955994,2.2948005199432373,-0.9329164624214172
1710737809911437300,9.767437255859376,0.5999283790588379,1.9707459211349487,-0.2092151790857315
1710737809944770300,9.800770263671875,0.8382351398468018,1.4416759014129639,0.25121092796325684
1710737809978103300,9.834103271484375,0.8969528675079346,0.8796964287757874,0.4641675651073456
1710737810011436300,9.867436279296875,0.7953231334686279,0.3828485310077667,0.447369247674942
1710737810044769300,9.900769287109375,0.3486410677433014,-0.20226679742336273,0.3196258246898651
1710737810078102300,9.934102294921875,-0.656660795211792,-0.7340856790542603,0.05085303261876106
1710737810111435300,9.967435302734375,-0.8371661901473999,-0.06879667192697525,-1.2187930345535278
1710737810144768300,10.000768310546874,-0.2848075330257416,1.2730820178985596,-1.925390601158142
1710737810178101200,10.034101318359374,0.4533250331878662,1.5290271043777466,-1.1530505418777466
1710737810211434000,10.06743408203125,0.8591566681861877,0.31412819027900696,0.22021043300628662
1710737810244767000,10.10076708984375,0.17241163551807404,-0.8557969927787781,1.1932138204574585
1710737810278100000,10.134099853515625,-0.4805840849876404,-1.210470199584961,1.0056072473526
1710737810311433000,10.167432861328125,-0.5595360994338989,-0.8090671896934509,0.08376242965459824
1710737810344766000,10.200765869140625,-0.6883485317230225,-0.38636088371276855,-0.3755183517932892
1710737810378099000,10.234098876953125,-0.9739959836006165,-0.24464432895183563,-0.1495048701763153
1710737810411432000,10.267431884765625,-1.152668833732605,-0.23830679059028625,0.3471139669418335
1710737810444765000,10.300764892578124,-1.2129136323928833,-0.30343836545944214,0.48600533604621887
1710737810478098000,10.334097900390624,-1.3731082677841187,-0.4095730781555176,0.37139514088630676
1710737810511431000,10.367430908203126,-1.508410930633545,-0.38185590505599976,0.07116370648145676
1710737810544764000,10.400763916015626,-1.109604001045227,-0.11743538826704025,-0.4142307937145233
1710737810578096600,10.4340966796875,-0.6150468587875366,-0.012216945178806782,-0.697969377040863
1710737810611429600,10.4674296875,-0.3313082754611969,-0.17615307867527008,-0.619170069694519
1710737810644762600,10.5007626953125,0.1656159609556198,-0.22754059731960297,-0.3620797097682953
1710737810678095600,10.534095703125,-0.35024455189704895,-0.12369657307863235,-0.41858309507369995
1710737810711428600,10.5674287109375,-1.436560034751892,-0.2821350693702698,-1.4877948760986328
1710737810744761600,10.60076171875,-0.3058817684650421,0.1999761164188385,-1.984566330909729
1710737810778094600,10.634094482421874,0.34971004724502563,0.30695074796676636,-0.9431481957435608
1710737810811427600,10.667427490234376,-0.06581879407167435,-0.04619532451033592,0.2641914486885071
1710737810844760600,10.700760498046876,-0.2005869746208191,0.11667182296514511,0.0883437842130661
1710737810878093600,10.734093505859375,-0.10827267915010452,0.9181798100471497,-0.682774543762207
1710737810911426600,10.767426513671875,-0.4437805414199829,1.9005749225616455,-0.9662840366363525
1710737810944759300,10.80075927734375,-0.5728983879089355,2.113149642944336,-0.8536590337753296
1710737810978092300,10.83409228515625,-0.5325824618339539,1.9531841278076172,-0.9142856597900391
1710737811011425300,10.86742529296875,-0.48371466994285583,1.7164044380187988,-0.8541935086250305
1710737811044758300,10.90075830078125,-0.645818293094635,1.0469921827316284,-0.5344913601875305
1710737811078091300,10.93409130859375,-0.7114843726158142,0.8599202036857605,-0.43408334255218506
1710737811111424300,10.96742431640625,-0.7650861740112305,1.4803882837295532,-0.739736020565033
1710737811144757200,11.00075732421875,-1.0017894506454468,2.1982102394104004,-0.9508601427078247
1710737811178090200,11.03409033203125,-1.0592855215072632,2.455605983734131,-0.3029802441596985
1710737811211423200,11.06742333984375,-0.5906893014907837,1.4438902139663696,-0.15866757929325104
1710737811244756200,11.100756103515625,0.15324631333351135,0.8343409895896912,0.09979717433452606
1710737811278089200,11.134089111328125,0.14729054272174835,-0.39201122522354126,0.6221479177474976
1710737811311422000,11.167421875,-0.31176117062568665,-1.3124053478240967,0.6600968241691589
1710737811344755000,11.2007548828125,-0.07734853774309158,-1.3967022895812988,0.411863774061203
1710737811378088000,11.234087890625,-0.2686964273452759,-1.3791403770446777,0.7302678823471069
1710737811411421000,11.2674208984375,-0.1268271654844284,-1.0287431478500366,1.0102649927139282
1710737811444754000,11.30075390625,0.4748573899269104,-1.2533822059631348,0.9422318935394287
1710737811478087000,11.3340869140625,0.22692975401878357,-1.3246986865997314,1.0740985870361328
1710737811511420000,11.367419921875,0.04825693368911743,-0.8004390001296997,1.1219737529754639
1710737811544753000,11.4007529296875,0.16217994689941406,-0.6810947060585022,0.892447829246521
1710737811578086000,11.4340859375,0.32275640964508057,-0.7291225790977478,0.39735615253448486
1710737811611419000,11.4674189453125,0.47470468282699585,-0.8622109293937683,-0.021303297951817513
1710737811644752000,11.500751953125,0.5568636059761047,-0.7665369510650635,-0.3381803035736084
1710737811678084600,11.534084716796874,0.7852441668510437,-0.6361210346221924,-0.5338805317878723
1710737811711417600,11.56741748046875,0.8346464037895203,-0.07750124484300613,-0.3912476599216461
1710737811744750600,11.60075048828125,0.5606814026832581,0.37437301874160767,-0.33237725496292114
1710737811778083600,11.63408349609375,1.0525661706924438,0.37116608023643494,-0.4366030693054199
1710737811811416600,11.66741650390625,1.4048722982406616,0.05650337040424347,0.10873081535100937
1710737811844749600,11.70074951171875,0.8488486409187317,-0.3208475112915039,0.9794935584068298
1710737811878082600,11.73408251953125,0.5123481154441833,-0.126216322183609,0.7172874212265015
1710737811911415600,11.76741552734375,0.20845162868499756,0.583053708076477,-0.7318713665008545
1710737811944748500,11.80074853515625,-0.04963133856654167,1.4385453462600708,-1.4412940740585327
1710737811978081500,11.83408154296875,-0.09903360903263092,1.5950748920440674,-1.136557698249817
1710737812011414500,11.86741455078125,0.03978142887353897,1.1044882535934448,-0.43767204880714417
1710737812044747300,11.900747314453126,0.15950748324394226,0.23807771503925323,0.29328304529190063
1710737812078080300,11.934080322265626,0.21257483959197998,-0.44523128867149353,0.5824428796768188
1710737812111413200,11.967413330078125,0.4065188467502594,-0.5384618639945984,0.6404733657836914
1710737812144746200,12.000746337890625,0.1211768239736557,-0.5260922312736511,0.4611133337020874
1710737812178079200,12.034079345703125,-0.04650074616074562,-0.4611133337020874,-0.2205922156572342
1710737812211412200,12.067412109375,0.4906630516052246,0.17286977171897888,-0.7086591720581055
1710737812244745200,12.1007451171875,0.6766660213470459,0.2629697322845459,-0.6318451166152954
1710737812278078200,12.134078125,0.7446228265762329,0.0014507622690871358,-0.22211933135986328
1710737812311411200,12.1674111328125,0.9865946769714355,-0.1020878478884697,0.44187164306640625
1710737812344744200,12.200744140625,0.43981003761291504,-0.9147437810897827,0.9093988537788391
1710737812378077200,12.2340771484375,-0.22784602642059326,-1.5964492559432983,0.8492304086685181
1710737812411410000,12.267409912109375,-0.27472856640815735,-1.5307068824768066,0.3304683566093445
1710737812444743000,12.300742919921875,-0.32939937710762024,-1.1624423265457153,-0.20280128717422485
1710737812478076000,12.334075927734375,-0.7142331600189209,-0.6910973191261292,-0.3404709994792938
1710737812511409000,12.367408935546875,-1.2539167404174805,-0.367730051279068,-0.046577103435993195
1710737812544742000,12.400741943359375,-1.586981177330017,-0.054899897426366806,0.45615020394325256
1710737812578075000,12.434074951171874,-1.5794219970703125,0.07574506103992462,0.7314895987510681
1710737812611408000,12.467407958984374,-1.458321452140808,-0.0325276181101799,0.5703022480010986
1710737812644740900,12.500740966796876,-1.129991054534912,-0.07024743407964706,0.2677038013935089
1710737812678073900,12.534073974609376,-0.6340594291687012,-0.14637427031993866,-0.0946049690246582
1710737812711406800,12.56740673828125,-0.1787491738796234,-0.32344362139701843,-0.32069480419158936
1710737812744739800,12.60073974609375,0.2367033064365387,-0.37803810834884644,-0.2507528066635132
1710737812778072600,12.634072509765625,0.7146149277687073,-0.12659808993339539,-0.15652960538864136
1710737812811405600,12.667405517578125,0.7957049012184143,0.28664007782936096,-0.25983914732933044
1710737812844738600,12.700738525390625,1.1696197986602783,0.5871005654335022,-0.7779903411865234
1710737812878071600,12.734071533203124,2.3393921852111816,0.4486673176288605,-0.6235223412513733
1710737812911404500,12.767404541015624,2.063136577606201,-0.4724903404712677,0.4521796703338623
1710737812944737500,12.800737548828126,0.8759549856185913,-0.7033142447471619,1.3360756635665894
1710737812978070500,12.834070556640626,0.8054021000862122,-0.09727742522954941,0.4252260625362396
1710737813011403500,12.867403564453125,0.972697913646698,0.8396859169006348,-1.2491062879562378
1710737813044736500,12.900736572265625,0.5479300022125244,1.4789376258850098,-1.9233289957046509
1710737813078069500,12.934069580078125,0.06413896381855011,1.892099380493164,-1.4585505723953247
1710737813111402500,12.967402587890625,-0.04650074616074562,1.538800597190857,-0.9062682390213013
1710737813144735200,13.0007353515625,-0.08139539510011673,0.6151995658874512,-0.3772745430469513
1710737813178068200,13.034068115234374,0.1185043677687645,-0.04940227046608925,0.3218401372432709
1710737813211401200,13.067401123046874,0.5246414542198181,-0.20241950452327728,0.6061131954193115
1710737813244734200,13.100734130859376,0.6728482842445374,-0.10201149433851242,0.2518981397151947
1710737813278067200,13.134067138671876,0.8577058911323547,0.5284592509269714,-0.32191649079322815
1710737813311400200,13.167400146484376,0.8982508778572083,1.0189695358276367,-0.5268557667732239
1710737813344733200,13.200733154296875,0.8000571727752686,0.8799254894256592,-0.393385648727417
1710737813378066200,13.234066162109375,1.1546540260314941,0.33856210112571716,0.17454960942268372
1710737813411399200,13.267399169921875,0.34482327103614807,-0.8179244995117188,0.8044858574867249
1710737813444732200,13.300732177734375,-0.7993699908256531,-1.5439927577972412,0.8127322793006897
1710737813478065200,13.334065185546875,-1.1477056741714478,-1.4896273612976074,0.27083441615104675
1710737813511398000,13.36739794921875,-1.1688562631607056,-1.0506572723388672,-0.015576604753732681
1710737813544731000,13.40073095703125,-1.4163256883621216,-0.7844042181968689,0.4243861436843872
1710737813578064000,13.43406396484375,-1.7076234817504883,-0.5758762359619141,1.01942777633667
1710737813611396900,13.46739697265625,-1.802457571029663,-0.4322507977485657,1.0989142656326294
1710737813644729900,13.500729736328125,-1.773213267326355,-0.3742966651916504,0.7773795127868652
1710737813678062800,13.534062744140625,-1.7057145833969116,-0.37177690863609314,0.30183491110801697
1710737813711395800,13.567395751953125,-1.407315731048584,-0.2721324563026428,-0.17096087336540222
1710737813744728800,13.600728759765625,-0.8406021595001221,-0.11636640131473541,-0.6056550741195679
1710737813778061800,13.634061767578125,-0.27022355794906616,-0.08101361989974976,-0.854040801525116
1710737813811394800,13.667394775390624,0.2450261116027832,-0.16492876410484314,-0.6694886088371277
1710737813844727800,13.700727783203124,0.682163655757904,-0.06490252166986465,-0.22662433981895447
1710737813878060500,13.734060546875,0.09613208472728729,-0.043141089379787445,-0.2289150059223175
1710737813911393500,13.7673935546875,0.06711684167385101,-0.19333316385746002,-0.6726191639900208
1710737813944726500,13.8007265625,1.3760861158370972,0.13301199674606323,-0.150421142578125
1710737813978059500,13.8340595703125,0.7337802648544312,-0.20196136832237244,0.5080721974372864
1710737814011392500,13.867392578125,0.254265159368515,-0.4017084240913391,0.28580015897750854
1710737814044725500,13.9007255859375,0.5822901725769043,0.3190149664878845,-0.7971556782722473
1710737814078058500,13.93405859375,0.7939487099647522,1.3866996765136719,-1.474050760269165
1710737814111391500,13.9673916015625,0.6808656454086304,1.8395664691925049,-1.2421579360961914
1710737814144724500,14.000724365234374,0.5028036236763,1.616989016532898,-0.43026554584503174
1710737814178057500,14.034057373046876,0.48302745819091797,0.9334509968757629,0.2256316989660263
1710737814211390500,14.067390380859376,0.514867901802063,0.0713164210319519,0.5463265180587769
1710737814244723200,14.10072314453125,0.5283065438270569,-0.4724139869213104,0.5859552621841431
1710737814278056200,14.13405615234375,0.575570821762085,-0.5396835803985596,0.34520506858825684
1710737814311389200,14.16738916015625,0.6481853127479553,-0.0019088976550847292,-0.1743205338716507
1710737814344722200,14.20072216796875,0.7285116910934448,0.6322268843650818,-0.4422534108161926
1710737814378055200,14.23405517578125,0.8481613993644714,0.5420506000518799,-0.23181653022766113
1710737814411388200,14.26738818359375,0.9086353182792664,0.31924405694007874,-0.36284327507019043
1710737814444721200,14.30072119140625,1.3084348440170288,0.337798535823822,-0.28274592757225037
1710737814478054100,14.33405419921875,1.2911020517349243,-0.2851129472255707,0.4318690001964569
1710737814511387100,14.36738720703125,0.3519243896007538,-1.2869024276733398,0.920012354850769
1710737814544720100,14.40072021484375,-0.4814240038394928,-1.5146721601486206,0.46485477685928345
1710737814578053000,14.43405322265625,-0.6171084642410278,-1.0062181949615479,-0.11858072131872177
1710737814611385900,14.4673857421875,-0.6610130667686462,-0.19180603325366974,-0.0761268362402916
1710737814644718800,14.50071875,-0.9550597071647644,0.27648472785949707,0.32871219515800476
1710737814678051800,14.5340517578125,-0.9890380501747131,0.2985515892505646,0.43263256549835205
1710737814711384800,14.567384765625,-0.7343910932540894,-0.0758214145898819,0.4395809471607208
1710737814744717800,14.6007177734375,-0.6325323581695557,-0.5478536486625671,0.5352548956871033
1710737814778050800,14.63405078125,-0.7372926473617554,-0.7038487792015076,0.4295019805431366
1710737814811383800,14.6673837890625,-0.5754944682121277,-0.4480564594268799,0.05566345527768135
1710737814844716800,14.700716796875,-0.22494450211524963,-0.11613733321428299,-0.07391251623630524
1710737814878049800,14.7340498046875,-0.024510245770215988,0.032603971660137177,0.015500249341130257
1710737814911382800,14.7673828125,0.18539214134216309,0.20669543743133545,0.09231429547071457
1710737814944715800,14.8007158203125,0.13873867690563202,0.3032856583595276,-0.1510319858789444
1710737814978048500,14.834048583984375,0.6476507782936096,0.4381301999092102,-0.6689541339874268
1710737815011381500,14.867381591796875,1.2135244607925415,0.39292749762535095,-0.46897798776626587
1710737815044714500,14.900714599609374,0.5669426321983337,-0.00786465872079134,0.26335152983665466
1710737815078047500,14.934047607421874,0.11506835371255875,-0.15744587779045105,0.18676654994487762
1710737815111380500,14.96738037109375,0.027182703837752342,0.2733541429042816,-0.6807129383087158
1710737815144713500,15.00071337890625,-0.027793550863862038,1.0004914999008179,-0.9500965476036072
1710737815178046500,15.03404638671875,0.03718532621860504,1.223374366760254,-0.5170822143554688
1710737815211379500,15.06737939453125,0.21982865035533905,0.9553651213645935,-0.0946049690246582
1710737815244712400,15.10071240234375,0.3061871826648712,0.5929799675941467,0.027182703837752342
1710737815278045400,15.13404541015625,0.2957264184951782,0.394225537776947,0.02176143415272236
1710737815311378400,15.16737841796875,0.46752721071243286,0.2124984860420227,0.07979192584753036
1710737815344711200,15.200711181640624,0.45798271894454956,-0.10987614840269089,0.10315682739019394
1710737815378044200,15.234044189453124,0.1832541823387146,-0.223264679312706,-0.14072394371032715
1710737815411377200,15.267377197265626,0.12316207587718964,0.006261184345930815,-0.3639122545719147
1710737815444710100,15.300710205078126,-0.007406522985547781,0.19783815741539001,-0.5536566972732544
1710737815478043100,15.334043212890625,-0.26190075278282166,0.4116346836090088,-0.831744909286499
1710737815511376100,15.367376220703125,-0.1898207813501358,0.6403970122337341,-0.6232169270515442
1710737815544709000,15.400709228515625,-0.4262186884880066,0.24120831489562988,0.05688514932990074
1710737815578042000,15.4340419921875,-0.63199782371521,-0.2688491642475128,0.42934927344322205
1710737815611375000,15.467375,-0.43080002069473267,-0.7087355256080627,0.17439688742160797
1710737815644708000,15.5007080078125,0.05596888065338135,-1.0126320123672485,0.13927318155765533
1710737815678041000,15.534041015625,-0.04818057641386986,-1.0430980920791626,0.6316160559654236
1710737815711373800,15.567373779296876,-0.5150969624519348,-0.6837671399116516,1.0957835912704468
1710737815744706800,15.600706787109376,-0.6946097016334534,-0.15981291234493256,0.9979717135429382
1710737815778039800,15.634039794921875,-0.5557946562767029,0.23677967488765717,0.6745280623435974
1710737815811372800,15.667372802734375,-0.39445462822914124,0.0955212414264679,0.4301128387451172
1710737815844705800,15.700705810546875,-0.45324867963790894,-0.6468872427940369,0.40041038393974304
1710737815878038800,15.734038818359375,-0.3479538559913635,-1.1735903024673462,0.14637427031993866
1710737815911371800,15.767371826171875,-0.12323843687772751,-1.061728835105896,-0.21089501678943634
1710737815944704800,15.800704833984375,-0.06055023521184921,-0.69651859998703,-0.35558944940567017
1710737815978037800,15.834037841796874,-0.19111883640289307,0.0590994730591774,-0.19066070020198822
1710737816011370800,15.867370849609374,-0.46187686920166016,0.6365792155265808,-0.3190913498401642
1710737816044703700,15.900703857421876,0.1143047958612442,0.6894174814224243,-0.9103915095329285
1710737816078036500,15.934036376953125,0.7602757811546326,0.32336726784706116,-0.7821135520935059
1710737816111369500,15.967369384765625,-0.12636902928352356,0.0032833039294928312,0.34100547432899475
1710737816144702500,16.000702392578123,-0.3498627543449402,0.014125842601060867,0.4195757210254669
1710737816178035500,16.034035400390625,0.45653197169303894,0.2569376230239868,-0.6845307350158691
1710737816211368400,16.067368408203127,0.530062735080719,0.5613686442375183,-0.6431457996368408
1710737816244701400,16.100701416015625,0.3416926860809326,0.533727765083313,0.23800136148929596
1710737816278034400,16.134034423828126,0.3567348122596741,0.42217180132865906,0.7303442358970642
1710737816311367400,16.167367431640624,0.4076641798019409,0.3485647141933441,0.7402704954147339
1710737816344700400,16.200700439453126,0.40934401750564575,0.18882815539836884,0.37437301874160767
1710737816378033400,16.234033447265624,0.4017084240913391,-0.039170581847429276,0.0231358390301466
1710737816411366400,16.267366455078125,0.7206470370292664,-0.3491755723953247,-0.23914669454097748
1710737816444699100,16.30069921875,1.2281848192214966,-0.4705814719200134,-0.17348061501979828
1710737816478032100,16.3340322265625,0.6026008129119873,-0.018936265259981155,0.08979454636573792
1710737816511365000,16.367365234375,-0.22524993121623993,0.8003626465797424,-0.25976279377937317
1710737816544698000,16.400697998046876,-0.21028417348861694,1.1995513439178467,-1.2403253316879272
1710737816578031000,16.434031005859374,0.5975613594055176,0.7264500856399536,-0.9314656853675842
1710737816611364000,16.467364013671876,0.3961344361305237,-0.7111788988113403,0.584199070930481
1710737816644697000,16.500697021484374,-0.5369347333908081,-1.5249801874160767,0.9954519867897034
1710737816678030000,16.534030029296876,-0.8880955576896667,-1.1953517198562622,0.30611082911491394
1710737816711363000,16.567363037109374,-0.9554414749145508,-0.6976639032363892,0.14721418917179108
1710737816744696000,16.600696044921875,-1.1212865114212036,-0.4934118688106537,0.5376219153404236
1710737816778029000,16.634029052734373,-1.2384928464889526,-0.3059581220149994,0.7771504521369934
1710737816811361800,16.66736181640625,-1.11678147315979,-0.041384901851415634,0.7404996156692505
1710737816844694800,16.70069482421875,-1.05142080783844,-0.08490777015686035,0.8640434741973877
1710737816878027800,16.73402783203125,-1.1080005168914795,-0.2683910131454468,0.8951203227043152
1710737816911360800,16.76736083984375,-0.975523054599762,-0.3402419090270996,0.49684789776802063
1710737816944693800,16.80069384765625,-0.6051205396652222,-0.30611082911491394,-0.11583191156387329
1710737816978026800,16.83402685546875,-0.25357797741889954,-0.17974179983139038,-0.3613924980163574
1710737817011359700,16.86735986328125,0.04940227046608925,-0.1169772520661354,-0.334057092666626
1710737817044692700,16.900692626953123,0.4915793240070343,-0.08353336155414581,-0.26938363909721375
1710737817078025700,16.934025634765625,0.6373427510261536,0.17569494247436523,-0.31596073508262634
1710737817111358700,16.967358642578127,0.7862367630004883,0.22868594527244568,-0.746913492679596
1710737817144691700,17.000691650390625,1.3151541948318481,-0.24075017869472504,-0.5299863815307617
1710737817178024400,17.0340244140625,0.9660549163818359,-0.5901548266410828,0.358720064163208
1710737817211357400,17.067357421875,0.7384379506111145,-0.5156314373016357,0.4846309423446655
1710737817244690400,17.1006904296875,0.7705074548721313,0.04169032722711563,-0.3808632791042328
1710737817278023400,17.1340234375,0.610541820526123,1.004996418952942,-0.8825215697288513
1710737817311356400,17.1673564453125,0.3292466700077057,1.4445774555206299,-0.6121453046798706
1710737817344689400,17.200689453125,0.14408360421657562,1.2333005666732788,-0.12942326068878174
1710737817378022400,17.2340224609375,0.0555107444524765,1.3618839979171753,-0.3327590525150299
1710737817411355400,17.26735546875,0.0164165198802948,1.5817126035690308,-0.705070436000824
1710737817444688400,17.3006884765625,0.03458922728896141,0.9297859072685242,-0.6027535200119019
1710737817478021400,17.334021484375,0.08758022636175156,-0.10117157548666,-0.2790044844150543
1710737817511354400,17.367354248046876,0.16042375564575195,-0.4426352083683014,-0.30038413405418396
1710737817544687000,17.40068701171875,0.4327852725982666,0.047951508313417435,-0.4355340898036957
1710737817578020000,17.43402001953125,0.4970006048679352,0.5547256469726562,-0.3694098889827728
1710737817611353000,17.46735302734375,0.22211933135986328,0.7029324769973755,-0.37887802720069885
1710737817644686000,17.50068603515625,0.4805840849876404,0.45378315448760986,-0.24556060135364532
1710737817678019000,17.53401904296875,0.32779592275619507,-0.349251925945282,0.2892361879348755
1710737817711352000,17.56735205078125,-0.44003909826278687,-1.0838720798492432,0.6860578060150146
1710737817744685000,17.60068505859375,-0.8296069502830505,-1.2371183633804321,0.3763582706451416
1710737817778018000,17.63401806640625,-0.815710186958313,-1.0430216789245605,0.0064902519807219505
1710737817811351000,17.66735107421875,-0.8917606472969055,-0.7937960028648376,0.2321983128786087
1710737817844684000,17.70068408203125,-1.1809967756271362,-0.6540647149085999,0.912529468536377
1710737817878017000,17.73401708984375,-1.417700171470642,-0.6991910338401794,1.249793529510498
1710737817911349800,17.767349853515626,-1.3779187202453613,-0.8262472748756409,1.052642583847046
1710737817944682800,17.800682861328124,-1.1635112762451172,-0.711713433265686,0.756381630897522
1710737817978015700,17.834015625,-0.8950439691543579,-0.4850127100944519,0.4318690001964569
1710737818011348700,17.8673486328125,-0.49470990896224976,-0.2680092453956604,0.06322269141674042
1710737818044681700,17.900681640625,-0.03962871432304382,-0.09116895496845245,-0.31473904848098755
1710737818078014700,17.9340146484375,0.3119138777256012,0.0016034740256145597,-0.6350520849227905
1710737818111347700,17.96734765625,0.5740436911582947,-0.17775654792785645,-0.5790068507194519
1710737818144680700,18.0006806640625,0.48394373059272766,-0.39598172903060913,-0.3958290219306946
1710737818178013700,18.034013671875,0.6933879852294922,-0.2910687327384949,-0.5616740584373474
1710737818211346700,18.0673466796875,2.0575625896453857,-0.008322793990373611,-0.5511369109153748
1710737818244679700,18.1006796875,1.7025840282440186,-0.17271706461906433,-0.04230117425322533
1710737818278012400,18.134012451171873,0.43767204880714417,-0.07375980913639069,0.49616068601608276
1710737818311345400,18.167345458984375,0.20196136832237244,0.39712706208229065,-0.38697174191474915
1710737818344678400,18.200678466796877,-0.018249060958623886,1.2651410102844238,-1.378300428390503
1710737818378011400,18.234011474609375,-0.36543938517570496,1.7908514738082886,-1.2048962116241455
1710737818411344400,18.267344482421876,-0.3953709006309509,1.6586030721664429,-0.433625191450119
1710737818444677400,18.300677490234374,-0.20432840287685394,1.1432770490646362,0.15584240853786469
1710737818478010400,18.33401025390625,0.05497625470161438,0.5456393361091614,0.24380441009998322
1710737818511343400,18.36734326171875,0.25021830201148987,0.09811734408140182,0.08009734749794006
1710737818544676400,18.40067626953125,0.41591063141822815,-0.01763821393251419,-0.0925433561205864
1710737818578009300,18.43400927734375,0.5409815907478333,0.10040801763534546,-0.08460234850645065
1710737818611342300,18.46734228515625,0.7026270627975464,0.18783552944660187,0.08574768155813217
1710737818644675000,18.500675048828125,0.7754706144332886,0.10903623700141907,0.20318306982517242
1710737818678008000,18.534008056640626,0.5741963982582092,-0.0130568603053689,-0.07887565344572067
1710737818711341000,18.567341064453124,0.8870265483856201,-0.09964445978403091,-0.20073968172073364
1710737818744674000,18.600674072265626,0.6943806409835815,-0.6760551929473877,0.2113531529903412
1710737818778007000,18.634007080078124,-0.3936910629272461,-1.1878688335418701,0.4518742561340332
1710737818811340000,18.667340087890626,-0.8786274194717407,-1.1520578861236572,0.19867807626724243
1710737818844673000,18.700673095703124,-0.732024073600769,-0.976973831653595,-0.14156384766101837
1710737818878006000,18.734006103515625,-0.7907418012619019,-0.9302440285682678,0.06459710001945496
1710737818911339000,18.767339111328123,-1.119759440422058,-0.8008207678794861,0.7372926473617554
1710737818944672000,18.800672119140625,-1.3796749114990234,-0.5108210444450378,1.2198619842529297
1710737818978005000,18.8340048828125,-1.482755422592163,-0.21982865035533905,1.1984059810638428
1710737819011337700,18.867337646484376,-1.413347840309143,-0.005573981441557407,0.8908443450927734
1710737819044670700,18.900670654296874,-1.1877925395965576,-0.023288551717996597,0.49524441361427307
1710737819078003700,18.934003662109376,-0.8329665660858154,-0.12392564117908478,0.10246963053941727
1710737819111336700,18.967336669921874,-0.3916294574737549,-0.21914145350456238,-0.21364383399486542
1710737819144669700,19.000669677734376,0.020845163613557816,-0.30817243456840515,-0.41858309507369995
1710737819178002700,19.034002685546874,0.3836120665073395,-0.21593450009822845,-0.5127299427986145
1710737819211335700,19.067335693359375,0.24166645109653473,0.07918107509613037,-0.5748836398124695
1710737819244668700,19.100668701171877,0.8223531246185303,0.43110546469688416,-0.9088643789291382
1710737819278001700,19.134001708984375,1.8119256496429443,0.29511559009552,-0.5983248949050903
1710737819311334700,19.167334716796876,1.3052278757095337,0.17508409917354584,0.5645755529403687
1710737819344667600,19.200667724609374,0.9123004078865051,0.09536852687597275,0.9135984182357788
1710737819378000400,19.23400048828125,0.799064576625824,0.3826957941055298,-0.261442631483078
1710737819411333400,19.26733349609375,0.4345414638519287,0.9865183234214783,-1.0652412176132202
1710737819444666400,19.300666259765624,0.13545538485050201,1.1954281330108643,-0.7815027236938477
1710737819477999400,19.333999267578125,0.12339114397764206,0.9971317648887634,-0.19501298666000366
1710737819511332400,19.367332275390623,0.20616094768047333,0.7973083853721619,0.06329904496669769
1710737819544665300,19.400665283203125,0.3089359998703003,0.44255882501602173,0.04230117425322533
1710737819577998300,19.433998291015627,0.347801148891449,0.14125843346118927,0.0011453386396169662
1710737819611331300,19.467331298828125,0.5434249639511108,0.1450762301683426,-0.1918824017047882
1710737819644664300,19.500664306640626,0.7292752861976624,0.1513374149799347,-0.3252761662006378
1710737819677997300,19.533997314453124,0.8836669325828552,0.07750124484300613,-0.09200886636972427
1710737819711330300,19.567330322265626,0.8048676252365112,-0.08192989230155945,0.11018157750368118
1710737819744663000,19.6006630859375,0.5098283886909485,0.015347537584602833,-0.1779092699289322
1710737819777996000,19.63399609375,0.7461498975753784,0.09559759497642517,-0.15065020322799683
1710737819811329000,19.6673291015625,0.6079457402229309,-0.5996229648590088,0.4056025743484497
1710737819844662000,19.700662109375,-0.4402681589126587,-1.3964731693267822,0.5491516590118408
1710737819877995000,19.7339951171875,-1.2855280637741089,-1.2565127611160278,-0.07330167293548584
1710737819911328000,19.767327880859376,-1.4439665079116821,-0.7092700004577637,-0.6206207871437073
1710737819944661000,19.800660888671874,-1.4023525714874268,-0.41407808661460876,-0.3764346241950989
1710737819977994000,19.833993896484376,-1.5509412288665771,-0.2874036431312561,0.40575528144836426
1710737820011327000,19.867326904296874,-1.616989016532898,-0.09933903813362122,0.985602080821991
1710737820044660000,19.900659912109376,-1.4645826816558838,0.07116370648145676,1.0938746929168701
1710737820077993000,19.933992919921874,-1.2820920944213867,0.04367557913064957,0.9334509968757629
1710737820111325700,19.96732568359375,-1.136557698249817,-0.20280128717422485,0.6033644080162048
1710737820144658700,20.00065869140625,-0.8166264295578003,-0.3545204699039459,0.1396549493074417
1710737820177991700,20.03399169921875,-0.4008685052394867,-0.2912214398384094,-0.21081866323947906
1710737820211324700,20.06732470703125,-0.07032378762960434,-0.0859767496585846,-0.4089622497558594
1710737820244657700,20.10065771484375,0.4396573007106781,0.2775537371635437,-0.5824428796768188
1710737820277990700,20.13399072265625,0.6410078406333923,0.5737382769584656,-0.7080483436584473
1710737820311323600,20.16732373046875,1.370970368385315,0.5118136405944824,-0.923677384853363
1710737820344656600,20.20065673828125,2.3019015789031982,-0.009697199799120426,-0.3035911023616791
1710737820377989600,20.23398974609375,1.4856568574905396,-0.4495072364807129,0.7175164818763733
1710737820411322600,20.267322509765624,0.7700493335723877,-0.362003356218338,0.8919897079467773
1710737820444655600,20.300655517578125,0.7116370797157288,0.2891598343849182,-0.12293300777673721
1710737820477988400,20.33398828125,0.3163425326347351,1.2342169284820557,-0.9605573415756226
1710737820511321300,20.3673212890625,-0.0778830274939537,1.5540717840194702,-0.8696174025535583
1710737820544654300,20.400654296875,-0.1557660549879074,1.2839245796203613,-0.5412106513977051
1710737820577987300,20.4339873046875,-0.037261683493852615,0.7795174717903137,-0.26785650849342346
1710737820611320300,20.4673203125,0.13469181954860687,0.32665055990219116,-0.1211768239736557
1710737820644653300,20.5006533203125,0.37238776683807373,0.0761268362402916,-0.19081340730190277
1710737820677986300,20.533986328125,0.593667209148407,-0.08681666851043701,-0.22876229882240295
1710737820711319300,20.5673193359375,0.6925480961799622,-0.3201603293418884,-0.049860406666994095
1710737820744652300,20.60065234375,0.7382088899612427,-0.30046048760414124,0.1856212168931961
1710737820777985300,20.6339853515625,0.5599178671836853,-0.19241689145565033,0.13950224220752716
1710737820811318300,20.667318359375,0.4149180054664612,0.04062134400010109,-0.17989452183246613
1710737820844651000,20.700651123046875,0.8160919547080994,0.09414683282375336,-0.08628217875957489
1710737820877984000,20.73398388671875,0.36933353543281555,-0.6442148089408875,0.40338826179504395
1710737820911317000,20.76731689453125,-0.5963396430015564,-1.33912992477417,0.5831300616264343
1710737820944650000,20.80064990234375,-0.9649096131324768,-1.353790283203125,0.17554223537445068
1710737820977983000,20.83398291015625,-1.0235509872436523,-1.11105477809906,-0.11743538826704025
1710737821011316000,20.86731591796875,-1.2912547588348389,-0.8856521844863892,0.18042901158332825
1710737821044649000,20.90064892578125,-1.6395903825759888,-0.5819083452224731,0.7115607261657715
1710737821077982000,20.93398193359375,-1.6051539182662964,-0.18111620843410492,0.9498674869537354
1710737821111315000,20.96731494140625,-1.32935631275177,0.011300674639642239,0.9269607067108154
1710737821144648000,21.00064794921875,-1.1453386545181274,-0.09040539711713791,0.8787801265716553
1710737821177981000,21.03398095703125,-1.0534061193466187,-0.3201603293418884,0.6533011198043823
1710737821211313700,21.067313720703126,-0.7291989326477051,-0.5301390886306763,0.06253548711538315
1710737821244646700,21.100646728515624,-0.2993151545524597,-0.6084802150726318,-0.5028036236763
1710737821277979600,21.133979736328126,0.035505495965480804,-0.3721587061882019,-0.7160657048225403
1710737821311312600,21.167312744140624,0.3175642192363739,0.12514732778072357,-0.7090409398078918
1710737821344645600,21.200645751953125,0.21654535830020905,0.6277982592582703,-0.8880192041397095
1710737821377978600,21.233978515625,0.7470661997795105,0.7463026642799377,-1.2946144342422485
1710737821411311600,21.2673115234375,1.5778948068618774,0.23151111602783203,-0.5408288836479187
1710737821444644600,21.30064453125,1.1886323690414429,-0.28999972343444824,0.9998042583465576
1710737821477977600,21.3339775390625,1.0645540952682495,-0.6058077812194824,1.3431767225265503
1710737821511310600,21.367310546875,1.1609152555465698,-0.29595550894737244,0.25121092796325684
1710737821544643600,21.4006435546875,0.9794172048568726,0.5333459973335266,-0.4470638334751129
1710737821577976300,21.433976318359374,0.6459710001945496,1.096470832824707,-0.33772218227386475
1710737821611309300,21.467309326171875,0.3419981002807617,1.0928821563720703,-0.054518118500709534
1710737821644642300,21.500642333984374,0.16943375766277313,0.6544464826583862,0.20135052502155304
1710737821677975300,21.533975341796875,0.14461809396743774,0.24586601555347443,0.4444677233695984
1710737821711308300,21.567308349609377,0.010918894782662392,-0.009468132629990578,0.3336753249168396
1710737821744641300,21.600641357421875,-0.024510245770215988,-0.019394399598240852,-0.016340164467692375
1710737821777974300,21.633974365234376,0.12904147803783417,0.19860170781612396,-0.3671191930770874
1710737821811307300,21.667307373046874,0.22410458326339722,0.3794125020503998,-0.527161180973053
1710737821844640300,21.70064013671875,0.11346487700939178,0.43828290700912476,-0.6678851246833801
1710737821877973200,21.73397314453125,0.13835690915584564,0.5299099683761597,-0.7740961909294128
1710737821911306200,21.76730615234375,0.9445225596427917,0.36727190017700195,-0.17393875122070312
1710737821944639000,21.800638916015625,0.7123242616653442,-0.8161683082580566,0.6580352187156677
1710737821977972000,21.833971923828123,-0.5371637940406799,-1.7739768028259277,0.8246437907218933
1710737822011305000,21.867304931640625,-1.0699753761291504,-1.5379606485366821,0.2331145852804184
1710737822044638000,21.900637939453127,-1.1061680316925049,-0.6914027333259583,-0.37597647309303284
1710737822077971000,21.933970947265625,-1.3071367740631104,-0.04993676394224167,-0.24044474959373474
1710737822111304000,21.967303955078126,-1.7089979648590088,0.2399866133928299,0.32901760935783386
1710737822144637000,22.000636962890624,-1.9040873050689697,0.37444937229156494,0.585038959980011
1710737822177970000,22.033969970703126,-1.7437398433685303,0.4456130862236023,0.4970006048679352
1710737822211303000,22.067302978515624,-1.366618037223816,0.2623589038848877,0.31741151213645935
1710737822244636000,22.100635986328125,-1.0558494329452515,-0.15332266688346863,0.13377554714679718
1710737822277969000,22.133968994140623,-0.7950940728187561,-0.3697916567325592,-0.13545538485050201
1710737822311301600,22.167301513671877,-0.4158342778682709,-0.23624517023563385,-0.5758762359619141
1710737822344634600,22.200634521484375,0.04428642615675926,0.10384403169155121,-0.9616262912750244
1710737822377967600,22.233967529296876,0.33596599102020264,0.35742199420928955,-0.9159654378890991
1710737822411300600,22.267300537109374,0.3995704650878906,0.41445985436439514,-0.828003466129303
1710737822444633600,22.300633544921876,1.453434705734253,0.10628741979598999,-0.7882983684539795
1710737822477966600,22.333966552734374,1.7418309450149536,-0.40544986724853516,0.22517357766628265
1710737822511299600,22.367299560546876,1.0886825323104858,-0.3608580231666565,1.3211863040924072
1710737822544632600,22.400632568359374,1.0855519771575928,-0.21830153465270996,1.038593053817749
1710737822577965600,22.433965576171875,1.1773316860198975,0.35864371061325073,-0.3954472541809082
1710737822611298600,22.467298583984373,0.9250518083572388,1.063179612159729,-1.0508863925933838
1710737822644631600,22.500631591796875,0.6632274389266968,1.2888113260269165,-0.5650337338447571
1710737822677964500,22.533964599609376,0.5124244689941406,0.9061155319213867,0.1175880953669548
1710737822711297300,22.56729736328125,0.4204919934272766,0.31382277607917786,0.5007420182228088
1710737822744630300,22.60063037109375,0.3709369897842407,-0.13598987460136414,0.5436540842056274
1710737822777963300,22.63396337890625,0.35360419750213623,-0.3122192919254303,0.18340688943862915
1710737822811296300,22.667296142578124,0.3358132839202881,-0.16752485930919647,-0.3968980014324188
1710737822844629200,22.700629150390625,0.2970244884490967,0.23685602843761444,-0.7029324769973755
1710737822877962200,22.733962158203123,0.3883461356163025,0.5402944087982178,-0.49974942207336426
1710737822911295200,22.767295166015625,0.2993151545524597,0.41232189536094666,-0.46668729186058044
1710737822944628200,22.800628173828127,0.5633538961410522,0.31618982553482056,-0.33085015416145325
1710737822977961200,22.833961181640625,0.6445965766906738,-0.35917818546295166,0.3187859058380127
1710737823011294200,22.867294189453126,-0.2005869746208191,-1.49443781375885,0.8813762664794922
1710737823044627200,22.900627197265624,-0.899625301361084,-1.8565938472747803,0.6723137497901917
1710737823077960000,22.9339599609375,-0.9897252917289734,-1.4388507604599,0.031000498682260513
1710737823111293000,22.96729296875,-1.1839747428894043,-0.804791271686554,-0.16256172955036163
1710737823144628000,23.0006279296875,-1.7236582040786743,-0.3128301501274109,0.34184539318084717
1710737823177961000,23.0339609375,-2.1662933826446533,0.06650599837303162,0.8478559851646423
1710737823211294000,23.0672939453125,-2.1704165935516357,0.3103867769241333,0.9347490072250366
1710737823244627000,23.100626953125,-1.91958749294281,0.2852656841278076,0.7800519466400146
1710737823277960000,23.1339599609375,-1.570870041847229,0.038636088371276855,0.44759833812713623
1710737823311293000,23.16729296875,-0.925128161907196,-0.26854372024536133,-0.07711946964263916
1710737823344626000,23.2006259765625,-0.2212030589580536,-0.4908921420574188,-0.5504497289657593
1710737823377959000,23.233958984375,0.20303036272525787,-0.4587462842464447,-0.8364789485931396
1710737823411292000,23.2672919921875,0.5745018720626831,-0.2880908250808716,-0.8178481459617615
1710737823444624600,23.300624755859374,0.7282062768936157,0.08047912269830704,-0.662387490272522
1710737823477957600,23.33395751953125,1.0692881345748901,0.3534514904022217,-1.0995250940322876
1710737823511290600,23.36729052734375,2.135063886642456,0.06368082761764526,-0.9465078115463257
1710737823544623600,23.40062353515625,1.8236844539642334,0.15378080308437347,0.605960488319397
1710737823577956600,23.43395654296875,1.0887588262557983,0.28755635023117065,1.1409863233566284
1710737823611289600,23.46728955078125,1.294690728187561,0.23273280262947083,-0.03665083646774292
1710737823644622600,23.50062255859375,1.3705121278762817,0.7823426127433777,-0.8557969927787781
1710737823677955600,23.53395556640625,1.174659252166748,1.3269892930984497,-0.3134410083293915
1710737823711288600,23.56728857421875,0.9260444641113281,1.267202615737915,0.429883748292923
1710737823744621600,23.60062158203125,0.5173876285552979,0.8841250538825989,0.7051467895507812
1710737823777954600,23.63395458984375,0.19447849690914154,0.5238015055656433,0.40987852215766907
1710737823811287300,23.667287353515626,0.10957072675228119,0.26518407464027405,-0.17210622131824493
1710737823844620300,23.700620361328124,0.02107422985136509,0.02145601063966751,-0.5735092163085938
1710737823877953300,23.733953369140625,-0.009773556143045425,-0.01175880990922451,-0.6018372774124146
1710737823911286300,23.767286376953123,0.07001836597919464,0.1459924876689911,-0.3500918447971344
1710737823944619300,23.800619384765625,0.3521534502506256,0.10376767814159393,0.0817771777510643
1710737823977952300,23.8339521484375,0.4557684063911438,-0.13866232335567474,0.04031591862440109
1710737824011285200,23.86728515625,0.5005893111228943,-0.06963659077882767,-0.043828289955854416
1710737824044618200,23.9006181640625,0.2235700935125351,-0.2980934679508209,0.23983390629291534
1710737824077951200,23.933951171875,-0.6229878664016724,-0.957503080368042,0.42217180132865906
1710737824111284200,23.9672841796875,-1.2546038627624512,-1.2223817110061646,0.31954947113990784
1710737824144617200,24.0006171875,-1.1788588762283325,-1.0711970329284668,-0.04810422286391258
1710737824177950000,24.033949951171873,-1.119759440422058,-0.6897228956222534,-0.26755109429359436
1710737824211283000,24.067282958984375,-1.4848933219909668,-0.38040512800216675,0.15065020322799683
1710737824244616000,24.100615966796877,-1.9564673900604248,-0.18707197904586792,0.8782456517219543
1710737824277949000,24.133948974609375,-2.1123862266540527,-0.11140327155590057,1.073182225227356
1710737824311282000,24.167281982421876,-2.053515672683716,-0.09590301662683487,0.8361735343933105
1710737824344615000,24.200614990234374,-1.763439655303955,0.014736690558493137,0.47165045142173767
1710737824377948000,24.233947998046876,-1.1996276378631592,0.14347274601459503,0.05291464552283287
1710737824411281000,24.267281005859374,-0.5675534605979919,0.09475768357515335,-0.32672691345214844
1710737824444614000,24.30061376953125,0.0028251686599105597,-0.07948649674654007,-0.6345939636230469
1710737824477947000,24.33394677734375,0.6814001202583313,-0.11323580890893936,-0.7195780873298645
1710737824511279900,24.36727978515625,0.9805625677108765,0.06154286116361618,-0.4391228258609772
1710737824544612600,24.400612548828125,0.7593594789505005,0.3315373361110687,-0.5379273891448975
1710737824577945600,24.433945556640627,1.8501800298690796,0.35864371061325073,-0.7821135520935059
1710737824611278600,24.467278564453125,2.6059508323669434,-0.25563958287239075,-0.2131093442440033
1710737824644611600,24.500611572265626,1.4911545515060425,-0.8543462753295898,0.6852179169654846
1710737824677944600,24.533944580078124,0.899625301361084,-0.695067822933197,0.5839699506759644
1710737824711277600,24.567277587890626,0.7940250635147095,0.12186402827501297,-0.48814332485198975
1710737824744610600,24.600610595703124,0.45477578043937683,0.947500467300415,-0.8438854813575745
1710737824777943600,24.633943603515625,0.09391776472330093,1.1842037439346313,-0.3545204699039459
1710737824811276500,24.667276611328123,0.0012216945178806782,0.9846094250679016,0.1862320601940155
1710737824844609500,24.700609619140625,-0.009697199799120426,0.5478536486625671,0.4238516390323639
1710737824877942500,24.733942626953127,0.08452598750591278,0.22731153666973114,0.44332239031791687
1710737824911275300,24.767275146484376,0.28786176443099976,0.1355317384004593,0.009544488042593002
1710737824944608300,24.800608154296874,0.42782214283943176,0.05031854286789894,-0.5166240930557251
1710737824977941200,24.833941162109376,0.4835619628429413,0.000687203137204051,-0.4885250926017761
1710737825011274200,24.867274169921874,0.5410579442977905,0.09674293547868729,-0.0745997205376625
1710737825044607200,24.900607177734376,0.42339351773262024,0.11438114941120148,-0.012904148548841476
1710737825077940200,24.933940185546874,0.6400152444839478,0.16546325385570526,-0.11506835371255875
1710737825111273200,24.967273193359375,0.7304969429969788,-0.17684027552604675,0.29091599583625793
1710737825144606200,25.000606201171873,-0.29328304529190063,-1.0241618156433105,0.4404972195625305
1710737825177939200,25.033939208984375,-1.2288719415664673,-1.2077977657318115,0.044668205082416534
1710737825211272200,25.067272216796876,-1.2413179874420166,-0.8997016549110413,-0.5467082858085632
1710737825244605200,25.100605224609374,-0.9404757022857666,-0.6042806506156921,-0.49264830350875854
1710737825277938000,25.13393798828125,-1.0108758211135864,-0.5809921026229858,0.4527141749858856
1710737825311271000,25.16727099609375,-1.2785797119140625,-0.5966450572013855,1.4054832458496094
1710737825344604000,25.20060400390625,-1.317979335784912,-0.5201364159584045,1.5743061304092407
1710737825377937000,25.23393701171875,-1.1912285089492798,-0.37712183594703674,1.318819284439087
1710737825411270000,25.267269775390623,-1.1199884414672852,-0.37231141328811646,0.9151255488395691
1710737825444603000,25.300602783203125,-0.972697913646698,-0.42751672863960266,0.31924405694007874
1710737825477935900,25.333935791015627,-0.6248204112052917,-0.37528929114341736,-0.4159869849681854
1710737825511268900,25.367268798828125,-0.42064470052719116,-0.18157434463500977,-0.812808632850647
1710737825544601900,25.400601806640626,-0.15691138803958893,0.07116370648145676,-0.9648332595825195
1710737825577934800,25.433934814453124,0.1721825748682022,0.40712970495224,-0.693617045879364
1710737825611267800,25.467267822265626,0.2754921019077301,0.6521558165550232,-0.5245651006698608
1710737825644600600,25.5006005859375,1.2767471075057983,0.504788875579834,-0.42850935459136963
1710737825677933600,25.53393359375,1.8767518997192383,-0.15530791878700256,0.3197021782398224
1710737825711266600,25.5672666015625,1.2656755447387695,-0.6088619828224182,1.1474765539169312
1710737825744599600,25.600599609375,0.9111550450325012,-0.42904382944107056,1.145491361618042
1710737825777932500,25.6339326171875,0.838311493396759,0.4548521339893341,0.10979979485273361
1710737825811265500,25.667265625,0.6426113247871399,1.3378318548202515,-0.39384377002716064
1710737825844598500,25.7005986328125,0.40850409865379333,1.6460806131362915,-0.20822255313396454
1710737825877931500,25.733931640625,0.20868068933486938,1.3868523836135864,0.17684027552604675
1710737825911264500,25.767264404296874,0.010002624243497849,0.7134696245193481,0.3246653079986572
1710737825944597500,25.800597412109376,0.03092414326965809,0.16492876410484314,0.14408360421657562
1710737825977930500,25.833930419921874,0.3416926860809326,-0.0051158457063138485,-0.23296187818050385
1710737826011263200,25.86726318359375,0.48814332485198975,-0.03978142887353897,-0.5499152541160583
1710737826044596200,25.90059619140625,0.41705596446990967,0.0038941511884331703,-0.5633538961410522
1710737826077929200,25.93392919921875,0.35650572180747986,0.2990860939025879,-0.47623178362846375
1710737826111262200,25.96726220703125,0.2770192325115204,0.27923354506492615,-0.6484143733978271
1710737826144595200,26.00059521484375,0.34665581583976746,0.21723255515098572,-0.8900044560432434
1710737826177928200,26.03392822265625,0.8570950627326965,0.17348061501979828,-0.5038726329803467
1710737826211261200,26.06726123046875,0.70308518409729,-0.6341357827186584,0.4044572412967682
1710737826244594200,26.10059423828125,-0.02710634656250477,-1.6750959157943726,0.8812234997749329
1710737826277927200,26.13392724609375,-0.4324035048484802,-1.9573073387145996,0.46752721071243286
1710737826311260200,26.16726025390625,-0.5469373464584351,-1.5215442180633545,-0.07513421028852463
1710737826344593200,26.20059326171875,-0.9878163933753967,-0.8104416131973267,-0.08261708915233612
1710737826377926000,26.23392578125,-1.650203824043274,-0.18126893043518066,0.32519981265068054
1710737826411259000,26.2672587890625,-2.049316167831421,0.26365694403648376,0.4903576374053955
1710737826444591900,26.300591796875,-2.1357510089874268,0.47531551122665405,0.39086589217185974
1710737826477924900,26.3339248046875,-2.073139190673828,0.4211791753768921,0.266176700592041
1710737826511257900,26.3672578125,-1.8300219774246216,0.24464432895183563,0.08192989230155945
1710737826544590800,26.4005908203125,-1.378682255744934,0.05566345527768135,-0.3528406620025635
1710737826577923800,26.433923828125,-0.822276771068573,0.0429883748292923,-0.9174925684928894
1710737826611256800,26.4672568359375,-0.18485765159130096,0.5144860744476318,-1.4238849878311157
1710737826644589800,26.50058984375,0.38101598620414734,1.081886887550354,-1.6050012111663818
1710737826677922800,26.5339228515625,0.5044071078300476,0.9662076234817505,-1.0891406536102295
1710737826711255800,26.567255859375,0.9901070594787598,0.13873867690563202,-0.6879667043685913
1710737826744588500,26.600588623046875,2.268075942993164,-1.0095014572143555,0.07177454978227615
1710737826777921500,26.633921630859376,2.1866040229797363,-2.024653196334839,1.8118493556976318
1710737826811254500,26.667254638671874,1.3744826316833496,-2.14262318611145,3.101118803024292
1710737826844587500,26.70058740234375,1.0769237279891968,-1.3213390111923218,1.9565438032150269
1710737826877920500,26.73392041015625,0.7907418012619019,0.48371466994285583,-0.3805578351020813
1710737826911253500,26.76725341796875,0.3399364948272705,2.028470993041992,-1.6321839094161987
1710737826944586500,26.80058642578125,0.07139277458190918,2.4729387760162354,-1.6957883834838867
1710737826977919500,26.83391943359375,0.0035887276753783226,1.91790771484375,-1.1084587574005127
1710737827011252500,26.86725244140625,0.05306735634803772,0.8025006055831909,-0.33352261781692505
1710737827044585500,26.90058544921875,0.2434989959001541,-0.22692975401878357,0.2894652485847473
1710737827077918500,26.93391845703125,0.3670428395271301,-0.789061963558197,0.430341899394989
1710737827111251200,26.967251220703126,0.36162158846855164,-0.6791094541549683,0.2211267054080963
1710737827144584200,27.000584228515624,0.39056047797203064,0.056961506605148315,-0.2818296551704407
1710737827177917200,27.033917236328126,0.3574983477592468,0.660936713218689,-0.5255576968193054
1710737827211250200,27.067250244140624,0.35887277126312256,0.676742434501648,-0.5786250829696655
1710737827244583200,27.100583251953125,0.9972081780433655,0.39476004242897034,-0.28633466362953186
1710737827277916200,27.133916259765623,1.084712028503418,-0.46370941400527954,0.4043808877468109
1710737827311249200,27.167249267578125,0.1680593490600586,-1.6756303310394287,0.8242620229721069
1710737827344582100,27.20058203125,-0.6649072170257568,-1.9818938970565796,0.6240568161010742
1710737827377915100,27.2339150390625,-0.92054682970047,-1.0967762470245361,0.17836740612983704
1710737827411248000,27.267248046875,-1.0650885105133057,0.027411770075559616,0.182643324136734
1710737827444581000,27.3005810546875,-1.2426923513412476,0.5798467397689819,0.5493044257164001
1710737827477913900,27.333913818359374,-1.449693202972412,0.5208236575126648,0.8984799385070801
1710737827511246800,27.367246826171876,-1.6169127225875854,0.14278554916381836,1.1247988939285278
1710737827544579800,27.400579833984374,-1.5834687948226929,-0.30656898021698,1.102197527885437
1710737827577912800,27.433912841796875,-1.278961420059204,-0.6067240238189697,0.7375217080116272
1710737827611245800,27.467245849609377,-0.6000047326087952,-0.6264238357543945,0.06070294603705406
1710737827644578800,27.500578857421875,-0.09246700257062912,-0.604509711265564,-0.4158342778682709
1710737827677911800,27.533911865234376,-0.0844496339559555,-0.6808656454086304,-0.526321291923523
1710737827711244800,27.567244873046874,0.24403348565101624,-0.5434249639511108,-0.5473191738128662
1710737827744577800,27.600577880859376,0.52571040391922,-0.00916270911693573,-0.5033381581306458
1710737827777910800,27.633910888671874,0.6769714951515198,0.4934118688106537,-0.7147676348686218
1710737827811243800,27.667243896484376,1.796425461769104,0.4458421468734741,-0.72683185338974
1710737827844576500,27.700576416015625,1.73732590675354,-0.08880192041397095,0.009391776286065578
1710737827877909500,27.733909423828123,0.917645275592804,-0.24792763590812683,0.8496885299682617
1710737827911242500,27.767242431640625,0.7315659523010254,0.026877280324697495,0.32665055990219116
1710737827944575500,27.800575439453127,0.5305208563804626,0.7568397521972656,-0.7524874806404114
1710737827977908500,27.833908447265625,0.2483094036579132,1.2348277568817139,-0.6930062174797058
1710737828011241500,27.867241455078126,0.17080816626548767,1.0780690908432007,-0.04550812020897865
1710737828044574500,27.900574462890624,0.23494713008403778,0.6009973287582397,0.4357631504535675
1710737828077907500,27.933907470703126,0.3321481943130493,0.12377292662858963,0.4978405237197876
1710737828111240400,27.967240478515624,0.40468630194664,-0.11170869320631027,0.2411319613456726
1710737828144573400,28.000573486328125,0.2638096511363983,-0.19524206221103668,-0.04856235533952713
1710737828177906400,28.033906494140624,0.19119518995285034,-0.016721943393349648,-0.3085542321205139
1710737828211239200,28.0672392578125,0.20188501477241516,0.28496024012565613,-0.3500918447971344
1710737828244572200,28.100572265625,0.09994988143444061,0.5611395835876465,-0.2700708508491516
1710737828277905200,28.1339052734375,-0.10552386194467545,0.6522321701049805,-0.5501443147659302
1710737828311238100,28.167238037109374,0.3772745430469513,0.6113817691802979,-0.5231143236160278
1710737828344571100,28.200571044921876,0.7001073360443115,-0.03184041380882263,0.052990999072790146
1710737828377904000,28.233904052734374,0.05932854115962982,-1.129991054534912,0.6376481652259827
1710737828411237000,28.267237060546876,-0.5212054252624512,-1.5588058233261108,0.4249969720840454
1710737828444570000,28.300570068359374,-0.44393324851989746,-1.340580701828003,-0.0293970238417387
1710737828477903000,28.333903076171875,-0.4154524803161621,-1.016831636428833,-0.024433890357613564
1710737828511236000,28.367236083984373,-0.8158628940582275,-0.6630746722221375,0.4989858567714691
1710737828544569000,28.400569091796875,-1.146865725517273,-0.20639002323150635,0.9071081876754761
1710737828577901800,28.43390185546875,-1.127089500427246,0.1250709742307663,0.7372162938117981
1710737828611234800,28.46723486328125,-1.1069315671920776,0.1465269923210144,0.48241662979125977
1710737828644567800,28.50056787109375,-1.1409099102020264,0.021226942539215088,0.3319191336631775
1710737828677900800,28.53390087890625,-1.0056836605072021,0.05184566229581833,-0.11705360561609268
1710737828711233800,28.56723388671875,-0.5793886184692383,-0.034818295389413834,-0.9303203821182251
1710737828744566800,28.60056689453125,-0.32993388175964355,-0.28572380542755127,-1.1063207387924194
1710737828777899800,28.633899658203124,-0.07727217674255371,-0.3199312388896942,-0.5474718809127808
1710737828811232800,28.667232666015625,0.10598199814558029,0.23425991833209991,0.06574243307113647
1710737828844565800,28.700565673828127,0.3730749487876892,0.7421793937683105,-0.20761170983314514
1710737828877898800,28.733898681640625,1.4893983602523804,0.6001574397087097,-0.37299859523773193
1710737828911231700,28.767231689453126,1.4426685571670532,0.15233004093170166,0.3261924386024475
1710737828944564500,28.800564453125,0.8040276765823364,-0.034131091088056564,0.7883747220039368
1710737828977897500,28.8338974609375,0.9771265387535095,-0.01695101149380207,0.44691112637519836
1710737829011230500,28.86723046875,0.9245173335075378,0.38788801431655884,0.1363716572523117
1710737829044563500,28.9005634765625,0.6864396333694458,1.0795198678970337,0.255715936422348
1710737829077896400,28.933896484375,0.5176166892051697,1.4614521265029907,0.5312080383300781
1710737829111229400,28.9672294921875,0.2548760175704956,1.3518049716949463,0.3409291207790375
1710737829144562400,29.0005625,-0.062153708189725876,0.8719081282615662,-0.1304158866405487
1710737829177895400,29.0338955078125,-0.1916533261537552,0.34153997898101807,-0.32458895444869995
1710737829211228400,29.067228515625,-0.04253023862838745,0.10231691598892212,-0.3906368315219879
1710737829244561400,29.1005615234375,0.30611082911491394,0.18378867208957672,-0.6027535200119019
1710737829277894400,29.133894287109374,0.4786751866340637,0.1910424828529358,-0.7366818189620972
1710737829311227100,29.16722705078125,0.5620558261871338,0.06558972597122192,-0.5570163726806641
1710737829344560000,29.20056005859375,0.34665581583976746,-0.036192700266838074,-0.670404851436615
1710737829377893000,29.23389306640625,0.610541820526123,0.11300674080848694,-0.724006712436676
1710737829411226000,29.26722607421875,0.8532009124755859,-0.13033953309059143,-0.01435491070151329
1710737829444559000,29.30055908203125,0.04085041210055351,-0.9455915689468384,0.611687183380127
1710737829477892000,29.33389208984375,-0.8563315272331238,-1.4603067636489868,0.30580541491508484
1710737829511225000,29.36722509765625,-1.012555718421936,-1.2656755447387695,-0.2819823622703552
1710737829544558000,29.40055810546875,-1.2481136322021484,-0.8530482053756714,-0.3650575876235962
1710737829577891000,29.43389111328125,-1.9335606098175049,-0.6071057915687561,0.14499986171722412
1710737829611224000,29.46722412109375,-2.343362808227539,-0.3670428395271301,0.4705814719200134
1710737829644557000,29.50055712890625,-2.1196398735046387,-0.032603971660137177,0.44217705726623535
1710737829677889800,29.533889892578124,-1.955398440361023,-0.03352024406194687,0.3366532027721405
1710737829711222800,29.567222900390625,-1.8516308069229126,-0.1291942000389099,0.2411319613456726
1710737829744555800,29.6005556640625,-1.3547828197479248,-0.14583978056907654,-0.024433890357613564
1710737829777888800,29.633888671875,-0.7040778398513794,-0.09330692142248154,-0.4017084240913391
1710737829811221800,29.6672216796875,-0.33321717381477356,-0.12797249853610992,-0.5178457498550415
1710737829844554800,29.7005546875,0.16042375564575195,-0.06650599837303162,-0.40063944458961487
1710737829877887700,29.7338876953125,0.4489727318286896,0.22639526426792145,-0.3632250428199768
1710737829911220700,29.767220703125,0.616879403591156,0.3571929335594177,-0.7342383861541748
1710737829944553700,29.8005537109375,1.3227897882461548,0.1522536724805832,-0.7070556879043579
1710737829977886700,29.83388671875,1.0655466318130493,-0.04253023862838745,-0.13843326270580292
1710737830011219700,29.8672197265625,0.5230379700660706,0.027182703837752342,0.3689517378807068
1710737830044552400,29.900552490234375,0.8447254300117493,0.39590537548065186,0.11209046840667725
1710737830077885400,29.933885498046877,1.077305555343628,1.051497220993042,-0.24670593440532684
1710737830111218400,29.967218505859375,0.8747332692146301,1.524522066116333,-0.11621369421482086
1710737830144551400,30.000551513671876,0.5302154421806335,1.300417423248291,0.2516690790653229
1710737830177884400,30.033884521484374,0.349251925945282,0.8465579152107239,0.11743538826704025
1710737830211217400,30.067217529296876,0.3820086121559143,0.5289173722267151,-0.37536564469337463
1710737830244550400,30.10055029296875,0.40460994839668274,0.20547375082969666,-0.5558710098266602
1710737830277883400,30.13388330078125,0.3058817684650421,-0.21769069135189056,-0.6910209655761719
1710737830311216400,30.16721630859375,0.42308807373046875,-1.0186641216278076,-1.0531007051467896
1710737830344549400,30.20054931640625,0.37597647309303284,-1.3140088319778442,-1.008279800415039
1710737830377882400,30.23388232421875,0.12300936877727509,-0.4052971601486206,-0.399952232837677
1710737830411215000,30.267215087890627,0.027411770075559616,0.36253786087036133,-0.13247749209403992
1710737830444548000,30.300548095703125,0.3528406620025635,0.6915554404258728,-0.2560213506221771
1710737830477881000,30.333881103515626,0.503414511680603,0.31596073508262634,0.29778802394866943
1710737830511214000,30.367214111328124,-0.2728196680545807,-0.5372401475906372,1.2212363481521606
1710737830544547000,30.400547119140626,-1.155799388885498,-0.8203678727149963,1.1506835222244263
1710737830577880000,30.433880126953124,-1.2274211645126343,-0.44607120752334595,0.31710609793663025
1710737830611213000,30.467213134765625,-1.0356152057647705,-0.11972606182098389,-0.08758022636175156
1710737830644546000,30.500546142578123,-1.1487746238708496,-0.1456107199192047,0.37651097774505615
1710737830677879000,30.533879150390625,-1.325080394744873,-0.25472331047058105,0.9458969831466675
1710737830711212000,30.5672119140625,-1.3329451084136963,-0.25090551376342773,1.0135482549667358
1710737830744545000,30.600544921875,-1.2652937173843384,-0.16859383881092072,0.7926506996154785
1710737830777877800,30.633877685546874,-1.1603807210922241,-0.23242738842964172,0.44523128867149353
1710737830811210800,30.667210693359376,-0.8376243114471436,-0.3760528564453125,0.0295497365295887
1710737830844543700,30.700543701171874,-0.31626617908477783,-0.41804859042167664,-0.33077380061149597
1710737830877876700,30.733876708984376,0.04359922185540199,-0.3985014855861664,-0.61313796043396
1710737830911209700,30.767209716796874,0.4169796109199524,-0.17256435751914978,-0.7419503331184387
1710737830944542700,30.800542724609375,0.43087637424468994,0.2943520247936249,-0.6468872427940369
1710737830977875700,30.833875732421873,0.4492781460285187,0.6578061580657959,-0.6113817691802979
1710737831011208700,30.867208740234375,1.55170476436615,0.17752748727798462,-0.7582905292510986
1710737831044541700,30.900541748046876,1.7912331819534302,-0.6562026739120483,-0.31886225938796997
1710737831077874700,30.933874755859375,1.258345365524292,-0.9000834226608276,0.6546755433082581
1710737831111207700,30.967207763671876,1.064324975013733,-0.19417306780815125,0.6995728015899658
1710737831144540400,31.00054052734375,0.8832851648330688,1.0899806022644043,-0.30740886926651
1710737831177873400,31.033873291015624,0.5771743059158325,1.883165717124939,-0.6550573110580444
1710737831211206400,31.067206298828125,0.4146125912666321,1.77642023563385,-0.3587964177131653
1710737831244539400,31.100539306640623,0.4751628041267395,1.0960127115249634,-0.21883602440357208
1710737831277872400,31.133872314453125,0.7798992395401001,0.16485241055488586,-0.3174878656864166
1710737831311205400,31.167205322265627,0.9854493141174316,-0.5416688323020935,-0.1540098637342453
1710737831344538400,31.200538330078125,0.7398887276649475,-0.7820371985435486,-0.10934165865182877
1710737831377871400,31.233871337890626,0.5164713859558105,-0.5625903010368347,-0.1041494607925415
1710737831411204400,31.267204345703124,0.7004127502441406,0.040544986724853516,0.1432436853647232
1710737831444537300,31.300537353515626,0.715989351272583,0.27236151695251465,0.11483928561210632
1710737831477870300,31.333870361328124,0.4424061179161072,0.31534990668296814,-0.19738002121448517
1710737831511203000,31.367203125,0.6516976952552795,0.1808871477842331,-0.10361496359109879
1710737831544536000,31.4005361328125,0.44759833812713623,-0.43148723244667053,0.3638359010219574
1710737831577869000,31.433869140625,-0.44278791546821594,-1.062950611114502,0.6375718116760254
1710737831611202000,31.4672021484375,-1.0957835912704468,-1.3013337850570679,0.5354076027870178
1710737831644535000,31.50053515625,-1.0337063074111938,-0.9900307059288025,0.38605546951293945
1710737831677868000,31.533867919921875,-1.092118501663208,-0.548922598361969,0.4718031585216522
1710737831711201000,31.567200927734376,-1.5077236890792847,-0.22807510197162628,0.746913492679596
1710737831744534000,31.600533935546874,-1.903629183769226,-0.09055810421705246,0.767224133014679
1710737831777867000,31.633866943359376,-2.0318307876586914,0.041919391602277756,0.5351021885871887
1710737831811200000,31.667199951171874,-1.879195213317871,0.11720632016658783,0.2492256760597229
1710737831844533000,31.700532958984375,-1.549185037612915,0.05306735634803772,0.0038177953101694584
1710737831877865700,31.73386572265625,-0.984991192817688,0.022906772792339325,-0.27839362621307373
1710737831911198700,31.76719873046875,-0.484478235244751,-0.015805672854185104,-0.540905237197876
1710737831944531700,31.80053173828125,-0.15630054473876953,-0.08971819281578064,-0.6672742962837219
1710737831977864700,31.83386474609375,0.36070531606674194,0.04581354558467865,-0.5416688323020935
1710737832011197700,31.86719775390625,0.5239542126655579,0.411863774061203,-0.5808393955230713
1710737832044530700,31.90053076171875,0.828003466129303,0.4921901822090149,-0.9187906384468079
1710737832077863700,31.93386376953125,1.994339942932129,-0.010308047756552696,-0.7435538172721863
1710737832111196700,31.96719677734375,1.8933210372924805,-0.5843517780303955,0.11392301321029663
1710737832144529700,32.00052978515625,1.2592616081237793,-0.7353837490081787,0.6258130073547363
1710737832177862700,32.033862548828125,1.161220669746399,-0.39323291182518005,-0.1355317384004593
1710737832211195600,32.06719555664063,0.9088643789291382,0.38903334736824036,-0.7840988039970398
1710737832244528400,32.1005283203125,0.5342622995376587,0.8925241827964783,-0.46370941400527954
1710737832277861400,32.133861328125,0.32336726784706116,0.6568135023117065,0.1023932695388794
1710737832311194400,32.1671943359375,0.28404396772384644,0.2773246467113495,0.40842774510383606
1710737832344527400,32.20052734375,0.32038938999176025,0.0784938707947731,0.33558422327041626
1710737832377860400,32.2338603515625,0.30908870697021484,0.0844496339559555,0.002748812548816204
1710737832411193300,32.267193359375,0.14270919561386108,0.07627955079078674,-0.27656111121177673
1710737832444526300,32.3005263671875,0.06543701142072678,0.2318928837776184,-0.3546731770038605
1710737832477859300,32.333859375,0.04253023862838745,0.41293275356292725,-0.07467607408761978
1710737832511192300,32.3671923828125,0.010918894782662392,0.37857258319854736,0.24273543059825897
1710737832544525300,32.400525390625,-0.031534988433122635,0.44568943977355957,0.02870982140302658
1710737832577858300,32.4338583984375,0.4521796703338623,0.48905959725379944,-0.0293970238417387
1710737832611191000,32.46719091796875,0.18493400514125824,-0.15950748324394226,0.3725404739379883
1710737832644524000,32.50052392578125,-0.8393805027008057,-0.9653677344322205,0.6962895393371582
1710737832677857000,32.53385693359375,-1.2214654684066772,-1.0854755640029907,0.3480302393436432
1710737832711190000,32.56718994140625,-0.9763630032539368,-0.7462263107299805,-0.026877280324697495
1710737832744523000,32.60052294921875,-1.096470832824707,-0.5127299427986145,0.14309096336364746
1710737832777856000,32.63385595703125,-1.5221550464630127,-0.3737621605396271,0.5354076027870178
1710737832811189000,32.66718896484375,-1.72251296043396,-0.1593547761440277,0.545181155204773
1710737832844522000,32.70052197265625,-1.8578156232833862,0.04802786558866501,0.2874799966812134
1710737832877855000,32.73385498046875,-2.031372547149658,0.1363716572523117,0.004352286923676729
1710737832911188000,32.76718798828125,-1.7064781188964844,0.17584764957427979,-0.22731153666973114
1710737832944521000,32.80052099609375,-0.6726191639900208,0.2764083743095398,-0.569004237651825
1710737832977853700,32.833853759765624,0.01832541823387146,0.1907370537519455,-0.7466844320297241
1710737833011186700,32.867186767578126,0.3089359998703003,-0.05993938818573952,-0.6403206586837769
1710737833044519700,32.90051977539063,0.822276771068573,-0.08605311065912247,-0.2691545784473419
1710737833077852700,32.93385278320312,0.993619441986084,0.1984490007162094,0.035505495965480804
1710737833111185700,32.967185546875,1.1163233518600464,0.29557371139526367,-0.04825693368911743
1710737833144518700,33.0005185546875,2.0982604026794434,0.01916533336043358,-0.12285665422677994
1710737833177851600,33.0338515625,1.9172968864440918,-0.3539096415042877,0.4175141155719757
1710737833211184600,33.0671845703125,1.007897973060608,-0.39445462822914124,0.8054784536361694
1710737833244517600,33.100517578125,1.0201148986816406,-0.14110571146011353,0.2769428789615631
1710737833277850600,33.1338505859375,1.1220500469207764,0.46096062660217285,-0.5970268249511719
1710737833311183600,33.16718359375,0.8169318437576294,0.8286906480789185,-0.5370874404907227
1710737833344516400,33.200516357421876,0.49379366636276245,0.6202390193939209,0.18256697058677673
1710737833377849300,33.23384936523438,0.36543938517570496,0.08994726091623306,0.538080096244812
1710737833411182300,33.26718237304687,0.3006131947040558,-0.3044309914112091,0.4970006048679352
1710737833444515300,33.30051538085937,0.16645587980747223,-0.49287739396095276,0.3116084635257721
1710737833477848300,33.333848388671875,0.17118994891643524,-0.3016822040081024,-0.005726693198084831
1710737833511181300,33.367181396484376,0.043141089379787445,0.02351761981844902,-0.36696648597717285
1710737833544514300,33.40051440429688,-0.10659284889698029,0.40987852215766907,-0.3658975064754486
1710737833577847300,33.43384741210937,-0.16309621930122375,0.6006155610084534,-0.40903860330581665
1710737833611180300,33.46718017578125,-0.1940203607082367,0.6396334171295166,-0.7760814428329468
1710737833644513300,33.50051318359375,0.2838912606239319,0.5905365943908691,-0.5454102754592896
1710737833677846300,33.53384619140625,0.3337516784667969,-0.15813308954238892,0.37231141328811646
1710737833711179000,33.56717895507813,-0.36162158846855164,-1.1742011308670044,0.9785773158073425
1710737833744512000,33.60051196289062,-0.6977402567863464,-1.4141877889633179,0.7436301708221436
1710737833777845000,33.63384497070312,-0.5136461853981018,-1.1638931035995483,0.363454133272171
1710737833811178000,33.667177978515625,-0.5761052966117859,-0.8796200752258301,0.4381301999092102
1710737833844511000,33.700510986328126,-1.0005677938461304,-0.6019136309623718,0.7041541934013367
1710737833877844000,33.73384399414063,-1.3124816417694092,-0.04077405482530594,0.7256101965904236
1710737833911177000,33.76717700195312,-1.4911545515060425,0.49883314967155457,0.668114185333252
1710737833944510000,33.800510009765624,-1.5639981031417847,0.5748836398124695,0.656660795211792
1710737833977843000,33.833843017578126,-1.4822208881378174,0.3333698809146881,0.5379273891448975
1710737834011176000,33.86717602539063,-1.0307283401489258,0.045355409383773804,0.019623467698693275
1710737834044509000,33.90050903320312,-0.5530458092689514,-0.16134002804756165,-0.6070294380187988
1710737834077841700,33.93384155273438,-0.40460994839668274,-0.2008923888206482,-0.9763630032539368
1710737834111174700,33.96717456054687,-0.11186140775680542,-0.011529741808772087,-0.9681929349899292
1710737834144507600,34.000507568359374,0.03336753323674202,0.26426780223846436,-0.6652126908302307
1710737834177840600,34.033840576171876,0.33627140522003174,0.23082390427589417,-0.6578825116157532
1710737834211173600,34.06717358398438,1.3747117519378662,-0.38941511511802673,-0.6737645268440247
1710737834244506600,34.10050659179687,1.3588297367095947,-0.7257629036903381,0.2489202618598938
1710737834277839600,34.133839599609374,0.8257891535758972,-0.6204680800437927,1.0653176307678223
1710737834311172600,34.167172607421875,1.110825777053833,-0.4821111857891083,0.4811949133872986
1710737834344505600,34.20050561523438,1.1972606182098389,0.19295138120651245,-0.4518742561340332
1710737834377838600,34.23383862304688,0.9032140374183655,0.8507575392723083,-0.4973060190677643
1710737834411171600,34.26717163085937,0.7560762166976929,0.8565605878829956,-0.04421006888151169
1710737834444504300,34.30050439453125,0.674680769443512,0.4831801950931549,0.20188501477241516
1710737834477837300,34.33383740234375,0.6483380198478699,0.16760121285915375,0.16332527995109558
1710737834511170300,34.36717041015625,0.611992597579956,0.0009162708884105086,0.04810422286391258
1710737834544503300,34.40050341796875,0.5380037426948547,-0.03199312463402748,-0.2796153426170349
1710737834577836300,34.43383618164062,0.5656445622444153,0.032603971660137177,-0.5942016839981079
1710737834611169300,34.467169189453124,0.6016845703125,0.15179555118083954,-0.5021164417266846
1710737834644502300,34.500502197265625,0.4990622103214264,0.2612135708332062,-0.3444415032863617
1710737834677835300,34.53383520507813,0.3978142738342285,0.23807771503925323,-0.3268032968044281
1710737834711168300,34.56716821289063,0.6319214701652527,0.13904410600662231,0.07895200699567795
1710737834744501200,34.60050122070312,0.2489202618598938,-0.4470638334751129,0.7575269341468811
1710737834777834200,34.633834228515624,-0.7744016051292419,-1.1003649234771729,0.8547280430793762
1710737834811167000,34.6671669921875,-1.168932557106018,-0.9780428409576416,0.3013767600059509
1710737834844500000,34.7005,-1.1731321811676025,-0.42430979013442993,-0.12132953852415085
1710737834877833000,34.7338330078125,-1.349437952041626,-0.04680617153644562,0.15714046359062195
1710737834911166000,34.767166015625,-1.69387948513031,0.01175880990922451,0.715989351272583
1710737834944499000,34.8004990234375,-1.845751404762268,-0.03588727489113808,0.9042829871177673
1710737834977832000,34.83383203125,-1.7372496128082275,0.010537114925682545,0.7614210844039917
1710737835011165000,34.8671650390625,-1.5379606485366821,-0.04695888236165047,0.46401485800743103
1710737835044498000,34.90049780273438,-1.2991193532943726,-0.15943112969398499,0.16050012409687042
1710737835077831000,34.93383081054687,-0.7966975569725037,-0.19684553146362305,-0.19661645591259003
1710737835111164000,34.967163818359374,-0.11178504675626755,-0.20639002323150635,-0.48814332485198975
1710737835144497000,35.000496826171876,0.31290650367736816,-0.19600561261177063,-0.587329626083374
1710737835177829600,35.03382958984375,0.4507289230823517,-0.05856497958302498,-0.4873797595500946
1710737835211162600,35.06716259765625,0.4665345847606659,0.25976279377937317,-0.5853443741798401
1710737835244495600,35.10049560546875,1.4757306575775146,0.13751699030399323,-0.8196043372154236
1710737835277828600,35.13382861328125,2.1485788822174072,-0.41927027702331543,-0.10361496359109879
1710737835311161600,35.16716162109375,1.3267602920532227,-0.7098045349121094,0.9622371196746826
1710737835344494600,35.20049462890625,1.0779163837432861,-0.6108472347259521,1.1331980228424072
1710737835377827600,35.23382763671875,0.982166051864624,0.14851224422454834,-0.0787992998957634
1710737835411160600,35.26716064453125,0.5183038711547852,1.1830583810806274,-0.8868738412857056
1710737835444493600,35.30049365234375,0.2223484069108963,1.5162756443023682,-0.6610130667686462
1710737835477826600,35.33382666015625,0.18279604613780975,1.2181057929992676,-0.1719534993171692
1710737835511159600,35.36715966796875,0.22043950855731964,0.6459710001945496,0.14347274601459503
1710737835544492300,35.4004921875,0.32122930884361267,0.13354648649692535,0.34787750244140625
1710737835577825300,35.4338251953125,0.517998456954956,-0.028938889503479004,0.33504971861839294
1710737835611158300,35.467158203125,0.5086066722869873,-0.13744063675403595,-0.034665580838918686
1710737835644491300,35.5004912109375,0.424157053232193,0.04558447748422623,-0.43973368406295776
1710737835677824300,35.53382421875,0.4486673176288605,0.299391508102417,-0.446529358625412
1710737835711157200,35.5671572265625,0.30313295125961304,0.20677179098129272,-0.5170822143554688
1710737835744490200,35.600490234375,0.5250995755195618,0.046424392610788345,-0.5367820262908936
1710737835777823200,35.6338232421875,0.4858526289463043,-0.3817795515060425,-0.09185615926980972
1710737835811156200,35.66715625,-0.3880407214164734,-0.947500467300415,0.3229091465473175
1710737835844489200,35.7004892578125,-1.029735803604126,-0.985602080821991,0.2709871232509613
1710737835877822200,35.733822265625,-0.9120712876319885,-0.742026686668396,-0.10728005319833755
1710737835911155000,35.76715502929687,-0.8400676846504211,-0.48402008414268494,-0.033596597611904144
1710737835944488000,35.800488037109375,-1.209401249885559,-0.32069480419158936,0.5708367824554443
1710737835977821000,35.833821044921876,-1.540556788444519,-0.10544750839471817,0.9650623202323914
1710737836011154000,35.86715380859375,-1.5975183248519897,0.10636378079652786,0.8646543025970459
1710737836044487000,35.90048681640625,-1.5157411098480225,0.10575293004512787,0.6252021789550781
1710737836077820000,35.93381982421875,-1.3641746044158936,-0.07620319724082947,0.3739912211894989
1710737836111153000,35.96715283203125,-1.035767912864685,-0.2692309319972992,0.019623467698693275
1710737836144486000,36.00048583984375,-0.5508314967155457,-0.3403182923793793,-0.44607120752334595
1710737836177819000,36.03381884765625,-0.15378080308437347,-0.19027891755104065,-0.8152520060539246
1710737836211152000,36.06715185546875,0.26701661944389343,0.07795938104391098,-0.9475768208503723
1710737836244484900,36.10048486328125,0.32810133695602417,0.4001813232898712,-0.7344674468040466
1710737836277817900,36.13381787109375,0.7623373866081238,0.5998520255088806,-0.783335268497467
1710737836311150600,36.167150634765626,1.8264333009719849,0.1769929975271225,-0.645818293094635
1710737836344483600,36.20048364257813,1.6522654294967651,-0.3201603293418884,0.31290650367736816
1710737836377816600,36.23381665039062,1.1142617464065552,-0.4286620616912842,1.2172658443450928
1710737836411149600,36.267149658203124,1.1461784839630127,-0.15775130689144135,0.7190435528755188
1710737836444482600,36.300482666015625,0.9688037633895874,0.5893912315368652,-0.1083490327000618
1710737836477815600,36.33381567382813,0.49883314967155457,1.239714503288269,-0.041766680777072906
1710737836511148500,36.3671484375,0.1623326539993286,1.2565127611160278,0.24120831489562988
1710737836544481500,36.4004814453125,-0.028404397889971733,0.871526300907135,0.23624517023563385
1710737836577814500,36.433814453125,0.04306473210453987,0.4656183123588562,-0.10277505218982697
1710737836611147500,36.4671474609375,0.255257785320282,0.13782241940498352,-0.3180987238883972
1710737836644480500,36.50048046875,0.31229567527770996,-0.10140064358711243,-0.4533250331878662
1710737836677813200,36.53381323242188,0.29328304529190063,-0.1366770714521408,-0.5853443741798401
1710737836711146200,36.56714624023437,0.3358132839202881,0.16492876410484314,-0.6497124433517456
1710737836744479200,36.600479248046874,0.2468586415052414,0.2829749882221222,-0.818535327911377
1710737836777812200,36.633812255859375,0.13446275889873505,0.22288289666175842,-1.1199884414672852
1710737836811145200,36.66714526367188,0.5739673376083374,-0.002672456670552492,-0.8309049606323242
1710737836844478200,36.70047827148438,0.23364907503128052,-0.740652322769165,0.12316207587718964
1710737836877811200,36.73381127929687,-0.6573479771614075,-1.2885823249816895,0.8822925090789795
1710737836911144200,36.767144287109375,-0.781884491443634,-1.1320526599884033,0.6353574991226196
1710737836944477200,36.800477294921876,-0.7075138092041016,-0.514867901802063,0.24120831489562988
1710737836977810200,36.83381005859375,-1.119377613067627,-0.0028251686599105597,0.5996229648590088
1710737837011143200,36.86714306640625,-1.5261255502700806,0.1453816443681717,1.1384665966033936
1710737837044476000,36.90047583007812,-1.6240137815475464,0.10162971168756485,1.2153569459915161
1710737837077809000,36.93380883789062,-1.5314704179763794,-0.13873867690563202,1.012555718421936
1710737837111142000,36.967141845703125,-1.3967022895812988,-0.4188121557235718,0.7214869856834412
1710737837144475000,37.00047485351563,-1.0928057432174683,-0.5657209157943726,0.33764582872390747
1710737837177808000,37.03380786132813,-0.5733565092086792,-0.5780141949653625,-0.10766182839870453
1710737837211140900,37.06714086914062,-0.1817270666360855,-0.5111264586448669,-0.44515493512153625
1710737837244473900,37.100473876953124,0.0231358390301466,-0.30656898021698,-0.6491779088973999
1710737837277806800,37.133806884765626,0.1579040139913559,0.17859646677970886,-0.4763845205307007
1710737837311139800,37.16713989257813,0.13362284004688263,0.6906391978263855,-0.5297572612762451
1710737837344472800,37.20047290039062,1.0117921829223633,0.6351284384727478,-0.7785248160362244
1710737837377805800,37.233805908203124,1.659213900566101,-0.03817795217037201,-0.18249061703681946
1710737837411138600,37.267138671875,0.8300650715827942,-0.49448084831237793,0.7684458494186401
1710737837444471600,37.300471435546875,0.33863845467567444,-0.4533250331878662,0.5756471753120422
1710737837477804500,37.33380444335938,0.21051323413848877,0.3416926860809326,-0.4429406225681305
1710737837511137500,37.36713745117188,0.09147437661886215,1.2736928462982178,-0.6553627252578735
1710737837544470500,37.40047045898437,0.0035123717971146107,1.4771050214767456,-0.3751365840435028
1710737837577803500,37.433803466796874,-0.018401773646473885,1.0802834033966064,-0.10330954194068909
1710737837611136500,37.467136474609376,0.04772244393825531,0.474475622177124,-0.09468132257461548
1710737837644469500,37.50046948242188,0.346808522939682,0.1453816443681717,-0.3300865888595581
1710737837677802500,37.53380249023437,0.7782194018363953,-0.026495499536395073,-0.5992411375045776
1710737837711135500,37.56713549804687,1.0117921829223633,-0.18226155638694763,-0.673306405544281
1710737837744468500,37.600468505859375,1.0192749500274658,-0.28572380542755127,-0.6280273199081421
1710737837777801200,37.63380126953125,1.0992196798324585,-0.2376195788383484,-0.5481590628623962
1710737837811134200,37.66713427734375,0.9794172048568726,-0.36398860812187195,-0.8499175906181335
1710737837844467200,37.70046728515625,1.1638166904449463,-0.40216657519340515,-0.9336037039756775
1710737837877800200,37.73380029296875,1.1977187395095825,-0.4068242609500885,0.06581879407167435
1710737837911133200,37.76713330078125,0.027029991149902344,-0.29481014609336853,0.6585696935653687
1710737837944466200,37.800466064453126,-0.7901309132575989,-0.09827005118131638,0.43645036220550537
1710737837977799200,37.83379907226563,-0.7393542528152466,-0.10048437118530273,0.27892813086509705
1710737838011132200,37.86713208007812,-0.732024073600769,-0.18493400514125824,0.5709131360054016
1710737838044465200,37.90046508789062,-1.1070842742919922,-0.13125580549240112,0.9743013978004456
1710737838077798100,37.933798095703125,-1.508410930633545,-0.040392275899648666,0.9536089301109314
1710737838111131100,37.96713110351563,-1.7772600650787354,-0.0620773509144783,0.7776849269866943
1710737838144464000,38.0004638671875,-2.043513059616089,-0.4318690001964569,0.5279247164726257
1710737838177796900,38.033796875,-2.2065329551696777,-0.8955020904541016,0.1050657257437706
1710737838211129900,38.0671298828125,-1.6779974699020386,-0.9138274788856506,-0.4750864505767822
1710737838244462800,38.100462890625,-0.9823951125144958,-0.6859050989151001,-0.9304730892181396
1710737838277795800,38.1337958984375,-0.6917845010757446,-0.2212030589580536,-0.7129350900650024
1710737838311128800,38.16712890625,0.009391776286065578,0.19676917791366577,-0.18905723094940186
1710737838344461800,38.2004619140625,0.5719820857048035,0.2865637242794037,0.1543152928352356
1710737838377794800,38.233794921875,0.48486000299453735,0.2077644169330597,-0.22662433981895447
1710737838411127800,38.2671279296875,1.2398672103881836,0.013973130844533443,-0.4705814719200134
1710737838444460800,38.300460693359376,1.7724497318267822,-0.1259108930826187,0.05535803362727165
1710737838477793800,38.33379370117188,1.0243908166885376,-0.09277242422103882,0.7177455425262451
1710737838511126500,38.36712646484375,0.8399913311004639,-0.2957264184951782,0.367730051279068
1710737838544459500,38.40045947265625,1.1536613702774048,-0.028098974376916885,-0.17882554233074188
1710737838577792500,38.43379248046875,1.2573527097702026,0.6901046633720398,0.19623468816280365
1710737838611125500,38.46712548828125,1.132816195487976,1.0374476909637451,0.6288672685623169
1710737838644458500,38.50045849609375,0.7950177192687988,0.7725690603256226,0.7040014863014221
1710737838677791500,38.53379150390625,0.40163207054138184,0.32161107659339905,0.3620797097682953
1710737838711124500,38.56712451171875,0.3019876182079315,0.19363857805728912,-0.06345175951719284
1710737838744457500,38.60045751953125,0.22944949567317963,0.24869118630886078,-0.30404922366142273
1710737838777790500,38.63379052734375,0.12728530168533325,0.12186402827501297,-0.4280512034893036
1710737838811123500,38.66712353515625,0.2044047713279724,0.07643226534128189,-0.3817031681537628
1710737838844456400,38.70045654296875,0.3903313875198364,0.013209572061896324,-0.26548948884010315
1710737838877789200,38.7337890625,0.26968905329704285,-0.10315682739019394,-0.36513394117355347
1710737838911122200,38.7671220703125,0.39231663942337036,0.05566345527768135,-0.3083251416683197
1710737838944455200,38.800455078125,0.5395308136940002,-0.020157959312200546,0.3029802441596985
1710737838977788200,38.8337880859375,-0.27831727266311646,-0.7223268747329712,0.8006680607795715
1710737839011121200,38.86712109375,-1.0102649927139282,-1.1674054861068726,0.5459447503089905
1710737839044454100,38.9004541015625,-0.9660549163818359,-0.9680401682853699,0.18439951539039612
1710737839077787100,38.933787109375,-0.9389485716819763,-0.48516544699668884,0.26487863063812256
1710737839111120100,38.9671201171875,-1.3870813846588135,-0.10468395054340363,0.6636855602264404
1710737839144453000,39.000453125,-1.8668255805969238,0.02817532978951931,0.9495620727539062
1710737839177786000,39.0337861328125,-1.9676153659820557,0.03390202298760414,0.910544216632843
1710737839211119000,39.067119140625,-1.7524443864822388,0.008093725889921188,0.7565343379974365
1710737839244451800,39.100451904296875,-1.4796247482299805,-0.055587101727724075,0.5803812742233276
1710737839277784800,39.13378491210938,-1.1852726936340332,-0.13927318155765533,0.2821350693702698
1710737839311117800,39.16711791992188,-0.6763606071472168,-0.14576342701911926,-0.19379130005836487
1710737839344450800,39.20045092773437,0.011071606539189816,-0.0426829531788826,-0.6668924689292908
1710737839377783800,39.23378369140625,0.672695517539978,0.07101099193096161,-0.7922688722610474
1710737839411116800,39.26711669921875,0.853506326675415,0.1495048701763153,-0.6347466707229614
1710737839444449800,39.30044970703125,0.896189272403717,0.11865708231925964,-0.8257891535758972
1710737839477782800,39.33378271484375,2.1933999061584473,-0.03527642786502838,-0.8058602213859558
1710737839511115800,39.36711572265625,2.2443292140960693,-0.4861580729484558,0.006184828467667103
1710737839544448800,39.40044873046875,1.1147198677062988,-0.5484644770622253,0.9194778203964233
1710737839577781800,39.43378173828125,0.968956470489502,-0.2351761907339096,0.5057815313339233
1710737839611114500,39.46711450195313,0.8240329623222351,0.5383855104446411,-0.7670714259147644
1710737839644447500,39.50044750976563,0.419881135225296,1.3010282516479492,-0.9029849767684937
1710737839677780500,39.53378051757812,0.17867282032966614,1.390135645866394,-0.20096874237060547
1710737839711113500,39.567113525390624,0.1701209545135498,0.9073372483253479,0.22677704691886902
1710737839744446500,39.600446533203126,0.2658712565898895,0.38307759165763855,0.33856210112571716
1710737839777779500,39.63377954101563,0.447369247674942,0.11514470726251602,0.314586341381073
1710737839811112400,39.66711254882812,0.6642963886260986,0.3067980408668518,0.446529358625412
1710737839844445400,39.700445556640624,0.9586484432220459,0.8486195802688599,0.4181249439716339
1710737839877778400,39.7337783203125,0.8654178380966187,0.8181535601615906,-0.03512371703982353
1710737839911111400,39.767111328125,0.6179483532905579,0.446529358625412,-0.1346154659986496
1710737839944444400,39.8004443359375,0.1656159609556198,-0.11781716346740723,-0.430341899394989
1710737839977777200,39.83377709960938,0.21585814654827118,-0.26365694403648376,-0.6126034259796143
1710737840011110100,39.86711010742187,0.5638883709907532,-0.43263256549835205,-0.18111620843410492
1710737840044443100,39.900443115234374,0.06849125027656555,-1.1813786029815674,0.359712690114975
1710737840077776100,39.933776123046876,-0.8192988634109497,-1.5611728429794312,0.43706122040748596
1710737840111109000,39.96710913085938,-1.111131191253662,-1.345391035079956,0.22257746756076813
1710737840144442000,40.00044213867187,-1.0858573913574219,-0.8768712282180786,0.14637427031993866
1710737840177775000,40.03377514648437,-1.3345485925674438,-0.5089884996414185,0.44790375232696533
1710737840211108000,40.067108154296875,-1.795203685760498,-0.325047105550766,0.7237012982368469
1710737840244441000,40.10044116210938,-2.1364383697509766,-0.21540001034736633,0.6984274983406067
1710737840277774000,40.13377416992188,-2.1494951248168945,-0.04818057641386986,0.49379366636276245
1710737840311107000,40.16710717773437,-1.9805195331573486,-0.07803573459386826,0.17485502362251282
1710737840344439800,40.20043969726562,-1.7179315090179443,-0.2871745824813843,-0.21799612045288086
1710737840377772800,40.233772705078124,-1.0534824132919312,-0.26342788338661194,-0.6286382079124451
1710737840411105800,40.267105712890626,-0.2591519355773926,-0.08513683825731277,-0.9201650619506836
1710737840444438800,40.30043872070313,0.3416926860809326,-0.07673768699169159,-0.82082599401474
1710737840477771800,40.33377172851562,0.9903361201286316,0.10491301864385605,-0.2253262847661972
1710737840511104800,40.36710473632812,1.0172133445739746,0.36750099062919617,0.12812520563602448
1710737840544437800,40.400437744140625,1.5039058923721313,0.34306707978248596,-0.1086544543504715
1710737840577770800,40.433770751953126,2.0408406257629395,-0.14080029726028442,-0.17439688742160797
1710737840611103700,40.46710375976563,1.2741509675979614,-0.5716003179550171,0.30305659770965576
1710737840644436700,40.50043676757812,0.6910209655761719,-0.3115321099758148,0.6153522729873657
1710737840677769700,40.533769775390624,0.6527666449546814,0.6041279435157776,-0.2214321345090866
1710737840711102500,40.5671025390625,0.3897205591201782,1.4570233821868896,-0.6988092660903931
1710737840744435500,40.600435546875,0.21555273234844208,1.6263808012008667,-0.20539739727973938
1710737840777768400,40.6337685546875,0.1799708753824234,1.2888113260269165,0.3603235185146332
1710737840811101400,40.66710131835937,0.16156910359859467,0.6720083355903625,0.4682144224643707
1710737840844434400,40.70043432617187,0.2655658423900604,0.07826480269432068,0.16347800195217133
1710737840877767400,40.733767333984375,0.6218425035476685,-0.1650814712047577,-0.1915769726037979
1710737840911100400,40.767100341796876,0.8194515705108643,-0.22853323817253113,-0.3566584289073944
1710737840944433400,40.80043334960938,0.6462000608444214,-0.24556060135364532,-0.18638476729393005
1710737840977766400,40.83376635742187,0.02107422985136509,-0.4981459379196167,0.35917818546295166
1710737841011099400,40.867099365234374,-0.269459992647171,-0.5804576277732849,0.15782766044139862
1710737841044432400,40.900432373046876,-0.10483665764331818,0.004199574701488018,-0.8041804432868958
1710737841077765000,40.93376513671875,0.42331716418266296,0.50685054063797,-0.8856521844863892
1710737841111098000,40.96709814453125,0.3232909142971039,-0.04031591862440109,-0.1041494607925415
1710737841144431000,41.00043115234375,-0.24250635504722595,-1.101892113685608,0.6622347831726074
1710737841177764000,41.03376416015625,-0.5028036236763,-1.5043641328811646,0.9311602711677551
1710737841211097000,41.06709716796875,-0.5129590034484863,-1.0564603805541992,0.7086591720581055
1710737841244430000,41.10043017578125,-0.8402203917503357,-0.3390965759754181,0.48928865790367126
1710737841277763000,41.13376318359375,-1.317368507385254,0.1599656194448471,0.4950917065143585
1710737841311096000,41.16709594726562,-1.5042877197265625,0.27381229400634766,0.4605024755001068
1710737841344429000,41.200428955078124,-1.5484215021133423,0.03321481868624687,0.317869633436203
1710737841377762000,41.233761962890625,-1.5467416048049927,-0.18691925704479218,0.2384594976902008
1710737841411095000,41.26709497070313,-1.3303489685058594,-0.14637427031993866,0.006948387715965509
1710737841444427800,41.300427734375,-0.9528453946113586,-0.14858859777450562,-0.4187358021736145
1710737841477760800,41.3337607421875,-0.5359421372413635,-0.3334462344646454,-0.7619556188583374
1710737841511093800,41.36709375,-0.06612421572208405,-0.7530983090400696,-0.7347729206085205
1710737841544426800,41.4004267578125,0.038101598620414734,-0.6762079000473022,-0.037948887795209885
1710737841577759700,41.433759765625,-0.10094250738620758,0.21532365679740906,0.23303823173046112
1710737841611092700,41.4670927734375,0.7133168578147888,0.6495596766471863,-0.5937435626983643
1710737841644425700,41.50042578125,1.380972981452942,0.37528929114341736,-1.0362260341644287
